Time(s),Position(V)
0.340000,1.706819
3.354000,1.739980
6.354000,1.772721
9.353000,1.806477
12.353000,1.833404
15.354000,1.866722
18.354000,1.887010
21.352000,1.897974
24.352000,1.894924
27.352000,1.887541
30.352000,1.864588
33.353000,1.836185
36.351000,1.807507
39.351000,1.764120
42.351000,1.714896
45.351000,1.673290
48.351000,1.622726
51.352000,1.575671
54.350000,1.526362
57.350000,1.483562
60.350000,1.451798
63.350000,1.411569
66.350000,1.374378
69.348000,1.343909
72.349000,1.319120
75.349000,1.285163
78.349000,1.248357
81.349000,1.215233
84.347000,1.172331
87.347000,1.129284
90.348000,1.078061
93.348000,1.017268
96.348000,0.952135
99.348000,0.876218
102.346000,0.796885
105.346000,0.718735
108.346000,0.628445
111.347000,0.538791
114.347000,0.448355
117.345000,0.363875
120.345000,0.272212
123.345000,0.187654
126.345000,0.105394
129.346000,0.030102
132.344000,-0.045243
135.344000,-0.119484
138.344000,-0.188925
141.344000,-0.258519
144.344000,-0.326909
147.342000,-0.401575
150.343000,-0.476111
153.343000,-0.556057
156.343000,-0.638585
159.343000,-0.726703
162.343000,-0.815041
165.341000,-0.909393
168.342000,-1.005625
171.342000,-1.103111
174.342000,-1.202192
177.342000,-1.306913
180.340000,-1.410600
183.340000,-1.511312
186.340000,-1.614244
189.341000,-1.708287
192.341000,-1.791281
195.339000,-1.873820
198.339000,-1.953052
201.339000,-2.034153
204.339000,-2.118262
207.340000,-2.208372
210.340000,-2.290047
213.338000,-2.362252
216.338000,-2.429877
219.338000,-2.495691
222.338000,-2.566831
225.338000,-2.646953
228.338000,-2.737729
231.338000,-2.834202
234.338000,-2.918159
237.336000,-2.987912
240.336000,-3.057591
243.336000,-3.137985
246.337000,-3.230355
249.337000,-3.328134
252.335000,-3.402884
255.335000,-3.460070
258.335000,-3.515546
261.335000,-3.569642
264.335000,-3.634605
267.334000,-3.712518
270.334000,-3.774473
273.334000,-3.819679
276.334000,-3.857923
279.334000,-3.894117
282.332000,-3.926527
285.333000,-3.961973
288.333000,-4.001050
291.333000,-4.052926
294.333000,-4.107576
297.333000,-4.159149
300.331000,-4.199412
303.331000,-4.236147
306.332000,-4.266028
309.332000,-4.293849
312.332000,-4.324155
315.330000,-4.354373
318.330000,-4.382392
321.330000,-4.413167
324.331000,-4.440584
327.331000,-4.467164
330.329000,-4.483342
333.329000,-4.493924
336.329000,-4.502770
339.329000,-4.505214
342.330000,-4.498969
345.330000,-4.497773
348.328000,-4.492065
351.329000,-4.488587
354.327000,-4.471774
357.327000,-4.464818
360.327000,-4.448253
363.328000,-4.434060
366.328000,-4.428505
369.328000,-4.411416
372.326000,-4.395391
375.326000,-4.384380
378.326000,-4.363749
381.326000,-4.350600
384.327000,-4.325899
387.325000,-4.307141
390.325000,-4.285174
393.325000,-4.258359
396.325000,-4.231976
399.325000,-4.199337
402.324000,-4.159567
405.324000,-4.113083
408.324000,-4.057634
411.324000,-3.992480
414.324000,-3.936610
417.322000,-3.897074
420.323000,-3.855601
423.323000,-3.812180
426.323000,-3.768153
429.323000,-3.718647
432.323000,-3.656481
435.321000,-3.589933
438.321000,-3.532873
441.322000,-3.484941
444.322000,-3.439694
447.322000,-3.395290
450.320000,-3.354286
453.320000,-3.289529
456.320000,-3.216737
459.321000,-3.138821
462.321000,-3.068034
465.319000,-3.012718
468.319000,-2.950161
471.319000,-2.890980
474.319000,-2.821053
477.319000,-2.747244
480.320000,-2.659633
483.318000,-2.582836
486.318000,-2.509040
489.318000,-2.453904
492.318000,-2.393751
495.318000,-2.328702
498.317000,-2.260162
501.317000,-2.189583
504.317000,-2.116773
507.317000,-2.039276
510.317000,-1.970831
513.315000,-1.900275
516.315000,-1.836559
519.316000,-1.778411
522.316000,-1.715531
525.316000,-1.653369
528.314000,-1.585645
531.314000,-1.514106
534.314000,-1.442571
537.315000,-1.368681
540.315000,-1.296279
543.315000,-1.227899
546.313000,-1.156435
549.313000,-1.089894
552.313000,-1.028871
555.313000,-0.972582
558.314000,-0.912327
561.312000,-0.857898
564.312000,-0.798091
567.312000,-0.745430
570.312000,-0.695676
573.312000,-0.639564
576.311000,-0.585628
579.311000,-0.532152
582.311000,-0.481017
585.311000,-0.433523
588.311000,-0.384207
591.311000,-0.337345
594.309000,-0.293214
597.310000,-0.244802
600.310000,-0.200116
603.310000,-0.155580
606.310000,-0.113205
609.308000,-0.081091
612.308000,-0.035963
615.309000,-0.003512
618.309000,0.037928
621.309000,0.069210
624.307000,0.098799
627.307000,0.131967
630.307000,0.152932
633.307000,0.179213
636.308000,0.202557
639.308000,0.220931
642.306000,0.238547
645.306000,0.256041
648.306000,0.273273
651.306000,0.284168
654.307000,0.298847
657.305000,0.304769
660.305000,0.312479
663.305000,0.323670
666.305000,0.328704
669.305000,0.332134
672.303000,0.337917
675.304000,0.336961
678.304000,0.346031
681.304000,0.343352
684.304000,0.335279
687.302000,0.328391
690.302000,0.313124
693.303000,0.305941
696.303000,0.293754
699.303000,0.273262
702.303000,0.259229
705.301000,0.241552
708.301000,0.222563
711.301000,0.202649
714.302000,0.183207
717.302000,0.163031
720.300000,0.135499
723.300000,0.110704
726.301000,0.086853
729.299000,0.057750
732.300000,0.029025
735.300000,-0.001003
738.300000,-0.032094
741.300000,-0.063733
744.298000,-0.096966
747.298000,-0.132032
750.298000,-0.165441
753.299000,-0.201874
756.299000,-0.240107
759.297000,-0.282522
762.297000,-0.321976
765.297000,-0.362865
768.297000,-0.407908
771.298000,-0.452594
774.296000,-0.498385
777.296000,-0.543224
780.296000,-0.593257
783.296000,-0.642291
786.296000,-0.690301
789.297000,-0.740008
792.295000,-0.786724
795.295000,-0.834126
798.295000,-0.883588
801.295000,-0.933053
804.295000,-0.984018
807.293000,-1.036003
810.294000,-1.081957
813.294000,-1.134339
816.294000,-1.184882
819.294000,-1.238053
822.292000,-1.292322
825.292000,-1.346591
828.293000,-1.401775
831.293000,-1.455670
834.293000,-1.514994
837.293000,-1.572336
840.291000,-1.625449
843.292000,-1.679368
846.292000,-1.731441
849.291000,-1.780825
852.291000,-1.828642
855.291000,-1.876135
858.291000,-1.927732
861.291000,-1.977099
864.289000,-2.028635
867.290000,-2.082976
870.290000,-2.136391
873.290000,-2.193047
876.290000,-2.247805
879.288000,-2.299820
882.288000,-2.346900
885.288000,-2.392231
888.289000,-2.435503
891.289000,-2.473241
894.289000,-2.511216
897.287000,-2.550769
900.287000,-2.592936
903.287000,-2.635626
906.288000,-2.683912
909.286000,-2.732636
912.286000,-2.777084
915.286000,-2.822889
918.286000,-2.860793
921.286000,-2.900271
924.286000,-2.928364
927.285000,-2.959969
930.285000,-2.988028
933.285000,-3.012541
936.285000,-3.037898
939.285000,-3.063390
942.283000,-3.089189
945.284000,-3.116816
948.284000,-3.143815
951.284000,-3.174026
954.284000,-3.201905
957.284000,-3.229485
960.282000,-3.252594
963.282000,-3.277533
966.283000,-3.299799
969.283000,-3.322123
972.283000,-3.337720
975.281000,-3.353956
978.281000,-3.367999
981.281000,-3.376341
984.282000,-3.381203
987.281000,-3.396534
990.281000,-3.400495
993.281000,-3.397714
996.281000,-3.407130
999.279000,-3.409999
1002.279000,-3.402657
1005.280000,-3.402813
1008.280000,-3.412026
1011.280000,-3.403408
1014.278000,-3.391017
1017.278000,-3.387808
1020.278000,-3.380302
1023.279000,-3.372150
1026.279000,-3.373860
1029.277000,-3.361159
1032.277000,-3.354000
1035.277000,-3.333896
1038.277000,-3.322987
1041.277000,-3.304344
1044.278000,-3.282951
1047.276000,-3.268004
1050.276000,-3.244939
1053.276000,-3.219806
1056.276000,-3.194300
1059.276000,-3.163052
1062.275000,-3.138063
1065.275000,-3.109103
1068.275000,-3.081057
1071.275000,-3.058216
1074.275000,-3.032799
1077.273000,-3.010117
1080.273000,-2.984982
1083.274000,-2.963358
1086.274000,-2.929900
1089.274000,-2.902028
1092.274000,-2.873809
1095.272000,-2.842238
1098.272000,-2.805144
1101.273000,-2.767936
1104.273000,-2.726307
1107.273000,-2.684089
1110.271000,-2.644329
1113.271000,-2.603498
1116.271000,-2.563935
1119.271000,-2.530491
1122.272000,-2.493828
1125.270000,-2.459632
1128.270000,-2.424112
1131.270000,-2.386656
1134.270000,-2.354382
1137.270000,-2.315529
1140.269000,-2.273016
1143.269000,-2.227466
1146.269000,-2.184127
1149.269000,-2.134049
1152.269000,-2.090648
1155.268000,-2.045044
1158.269000,-1.999437
1161.269000,-1.955251
1164.267000,-1.919485
1167.267000,-1.872294
1170.267000,-1.834492
1173.267000,-1.796625
1176.267000,-1.760146
1179.267000,-1.722758
1182.267000,-1.688404
1185.267000,-1.645615
1188.265000,-1.606500
1191.265000,-1.565969
1194.265000,-1.521279
1197.266000,-1.480730
1200.266000,-1.443326
1203.266000,-1.399286
1206.264000,-1.357690
1209.264000,-1.319695
1212.264000,-1.283677
1215.264000,-1.244233
1218.265000,-1.207526
1221.264000,-1.172821
1224.264000,-1.139394
1227.264000,-1.110821
1230.262000,-1.072142
1233.262000,-1.043801
1236.263000,-1.021875
1239.263000,-0.984334
1242.262000,-0.964733
1245.262000,-0.928114
1248.262000,-0.909815
1251.262000,-0.873145
1254.260000,-0.851613
1257.261000,-0.827973
1260.261000,-0.800498
1263.261000,-0.778422
1266.261000,-0.754470
1269.259000,-0.734620
1272.259000,-0.709138
1275.260000,-0.684192
1278.260000,-0.668592
1281.260000,-0.644749
1284.258000,-0.636134
1287.258000,-0.611764
1290.258000,-0.600671
1293.258000,-0.585989
1296.259000,-0.570565
1299.257000,-0.563892
1302.257000,-0.546120
1305.257000,-0.546674
1308.257000,-0.530812
1311.257000,-0.520791
1314.258000,-0.518554
1317.256000,-0.506275
1320.256000,-0.498375
1323.256000,-0.500390
1326.256000,-0.495839
1329.256000,-0.496015
1332.254000,-0.486157
1335.255000,-0.497307
1338.255000,-0.499785
1341.255000,-0.496080
1344.255000,-0.502665
1347.253000,-0.515294
1350.253000,-0.519434
1353.254000,-0.527651
1356.254000,-0.538529
1359.254000,-0.549897
1362.254000,-0.560693
1365.252000,-0.574363
1368.252000,-0.585414
1371.252000,-0.599648
1374.253000,-0.613487
1377.253000,-0.629597
1380.251000,-0.642437
1383.251000,-0.654423
1386.251000,-0.661841
1389.251000,-0.691580
1392.252000,-0.713095
1395.250000,-0.729922
1398.250000,-0.750234
1401.250000,-0.769954
1404.250000,-0.791609
1407.250000,-0.809316
1410.248000,-0.831223
1413.249000,-0.854495
1416.249000,-0.880593
1419.249000,-0.908754
1422.249000,-0.930990
1425.249000,-0.953488
1428.247000,-0.978416
1431.248000,-1.006723
1434.248000,-1.037159
1437.247000,-1.059218
1440.247000,-1.087926
1443.246000,-1.120163
1446.246000,-1.145190
1449.246000,-1.171566
1452.247000,-1.204157
1455.247000,-1.234286
1458.245000,-1.264899
1461.245000,-1.296014
1464.245000,-1.325759
1467.245000,-1.360797
1470.246000,-1.389808
1473.246000,-1.423018
1476.244000,-1.452134
1479.244000,-1.487557
1482.244000,-1.522568
1485.244000,-1.554635
1488.244000,-1.586070
1491.243000,-1.618092
1494.243000,-1.650792
1497.243000,-1.680071
1500.243000,-1.712917
1503.243000,-1.743454
1506.241000,-1.773397
1509.242000,-1.798866
1512.242000,-1.830117
1515.241000,-1.856347
1518.241000,-1.884495
1521.241000,-1.914695
1524.241000,-1.942483
1527.242000,-1.972432
1530.240000,-2.000212
1533.240000,-2.028669
1536.240000,-2.060274
1539.240000,-2.090842
1542.240000,-2.121101
1545.238000,-2.151753
1548.239000,-2.184184
1551.239000,-2.215745
1554.238000,-2.243236
1557.238000,-2.271115
1560.238000,-2.298420
1563.238000,-2.321995
1566.238000,-2.346655
1569.238000,-2.367976
1572.238000,-2.388971
1575.238000,-2.410014
1578.236000,-2.430214
1581.236000,-2.446324
1584.236000,-2.464820
1587.237000,-2.482623
1590.237000,-2.501103
1593.237000,-2.516618
1596.235000,-2.532024
1599.235000,-2.548528
1602.235000,-2.560144
1605.236000,-2.578189
1608.236000,-2.591341
1611.234000,-2.605347
1614.234000,-2.620325
1617.234000,-2.632060
1620.234000,-2.644087
1623.234000,-2.659330
1626.233000,-2.673044
1629.233000,-2.679357
1632.233000,-2.694498
1635.233000,-2.702816
1638.233000,-2.712420
1641.231000,-2.720252
1644.232000,-2.725137
1647.232000,-2.730107
1650.232000,-2.739735
1653.232000,-2.741308
1656.232000,-2.737834
1659.230000,-2.747631
1662.230000,-2.724692
1665.231000,-2.732548
1668.231000,-2.747931
1671.231000,-2.740465
1674.229000,-2.724485
1677.229000,-2.738993
1680.229000,-2.719192
1683.230000,-2.711539
1686.230000,-2.718620
1689.228000,-2.695783
1692.228000,-2.701858
1695.228000,-2.684969
1698.228000,-2.669043
1701.228000,-2.664600
1704.229000,-2.646922
1707.227000,-2.635952
1710.227000,-2.624605
1713.227000,-2.608060
1716.227000,-2.597671
1719.227000,-2.589591
1722.226000,-2.571981
1725.226000,-2.559879
1728.226000,-2.544330
1731.226000,-2.528393
1734.226000,-2.514993
1737.224000,-2.500695
1740.224000,-2.490931
1743.225000,-2.474594
1746.225000,-2.459350
1749.225000,-2.442999
1752.223000,-2.428483
1755.223000,-2.411404
1758.223000,-2.391344
1761.224000,-2.374473
1764.224000,-2.360055
1767.224000,-2.338962
1770.222000,-2.316304
1773.222000,-2.304746
1776.222000,-2.272424
1779.222000,-2.255270
1782.223000,-2.225794
1785.221000,-2.202229
1788.221000,-2.178116
1791.221000,-2.150370
1794.221000,-2.124435
1797.221000,-2.100677
1800.220000,-2.074225
1803.220000,-2.050983
1806.220000,-2.026106
1809.220000,-1.998213
1812.220000,-1.975563
1815.220000,-1.948870
1818.218000,-1.927321
1821.219000,-1.904735
1824.219000,-1.878022
1827.219000,-1.853950
1830.219000,-1.832490
1833.217000,-1.814762
1836.217000,-1.789830
1839.218000,-1.771225
1842.218000,-1.748890
1845.218000,-1.730407
1848.216000,-1.706203
1851.216000,-1.687577
1854.216000,-1.662367
1857.216000,-1.647729
1860.217000,-1.620887
1863.215000,-1.601211
1866.215000,-1.577455
1869.215000,-1.551303
1872.215000,-1.529747
1875.215000,-1.513178
1878.216000,-1.488481
1881.214000,-1.471514
1884.214000,-1.448789
1887.214000,-1.425421
1890.214000,-1.406442
1893.214000,-1.381871
1896.212000,-1.369259
1899.213000,-1.358727
1902.213000,-1.339547
1905.213000,-1.311379
1908.213000,-1.297323
1911.211000,-1.282957
1914.211000,-1.261696
1917.212000,-1.245783
1920.212000,-1.229748
1923.212000,-1.213703
1926.211000,-1.221984
1929.211000,-1.192035
1932.211000,-1.180388
1935.210000,-1.165257
1938.210000,-1.158183
1941.210000,-1.160307
1944.210000,-1.134489
1947.210000,-1.124171
1950.210000,-1.130569
1953.208000,-1.113296
1956.209000,-1.101259
1959.209000,-1.094558
1962.209000,-1.107068
1965.209000,-1.081440
1968.208000,-1.070888
1971.208000,-1.075328
1974.209000,-1.069882
1977.207000,-1.079737
1980.207000,-1.059884
1983.207000,-1.053724
1986.207000,-1.053126
1989.207000,-1.075464
1992.205000,-1.076558
1995.206000,-1.076837
1998.206000,-1.071211
2001.206000,-1.060210
2004.206000,-1.058918
2007.204000,-1.079101
2010.204000,-1.059020
2013.205000,-1.085033
2016.205000,-1.087379
2019.205000,-1.094004
2022.203000,-1.099936
2025.203000,-1.108071
2028.203000,-1.115703
2031.203000,-1.122631
2034.204000,-1.125966
2037.204000,-1.113830
2040.202000,-1.130661
2043.202000,-1.151856
2046.202000,-1.159655
2049.202000,-1.168296
2052.203000,-1.177478
2055.201000,-1.184148
2058.201000,-1.200115
2061.201000,-1.210246
2064.201000,-1.223272
2067.201000,-1.238111
2070.199000,-1.249044
2073.200000,-1.261696
2076.200000,-1.275519
2079.200000,-1.291567
2082.200000,-1.305750
2085.200000,-1.319062
2088.198000,-1.337464
2091.199000,-1.351459
2094.199000,-1.368932
2097.199000,-1.382285
2100.199000,-1.397304
2103.197000,-1.417827
2106.197000,-1.432366
2109.197000,-1.450105
2112.198000,-1.465399
2115.198000,-1.485014
2118.196000,-1.503112
2121.196000,-1.522163
2124.196000,-1.542329
2127.196000,-1.560009
2130.197000,-1.578795
2133.195000,-1.597097
2136.195000,-1.614955
2139.195000,-1.633614
2142.195000,-1.647777
2145.195000,-1.652332
2148.195000,-1.686044
2151.194000,-1.705428
2154.194000,-1.723761
2157.194000,-1.739521
2160.194000,-1.755597
2163.194000,-1.773291
2166.192000,-1.787005
2169.193000,-1.806732
2172.193000,-1.823661
2175.193000,-1.838160
2178.193000,-1.854484
2181.191000,-1.869343
2184.191000,-1.888163
2187.191000,-1.903933
2190.192000,-1.923072
2193.192000,-1.938689
2196.192000,-1.955598
2199.190000,-1.969825
2202.190000,-1.983089
2205.190000,-2.001735
2208.191000,-2.019066
2211.191000,-2.034149
2214.189000,-2.050256
2217.189000,-2.065513
2220.189000,-2.080916
2223.189000,-2.100160
2226.189000,-2.112741
2229.188000,-2.127247
2232.189000,-2.142646
2235.189000,-2.155401
2238.187000,-2.169196
2241.187000,-2.184636
2244.187000,-2.194889
2247.188000,-2.208803
2250.188000,-2.221507
2253.186000,-2.230743
2256.186000,-2.244331
2259.186000,-2.252619
2262.186000,-2.263647
2265.187000,-2.271445
2268.185000,-2.282242
2271.185000,-2.291318
2274.185000,-2.291339
2277.185000,-2.304549
2280.185000,-2.311960
2283.185000,-2.312834
2286.184000,-2.322145
2289.184000,-2.330507
2292.184000,-2.330246
2295.184000,-2.332530
2298.184000,-2.340447
2301.182000,-2.342198
2304.183000,-2.345173
2307.183000,-2.344890
2310.183000,-2.348613
2313.183000,-2.350738
2316.183000,-2.336766
2319.181000,-2.347172
2322.181000,-2.349517
2325.182000,-2.337398
2328.182000,-2.344493
2331.182000,-2.337225
2334.180000,-2.342589
2337.180000,-2.331021
2340.180000,-2.326421
2343.181000,-2.333988
2346.181000,-2.327781
2349.179000,-2.311487
2352.179000,-2.312810
2355.179000,-2.312667
2358.179000,-2.305532
2361.179000,-2.297771
2364.178000,-2.288939
2367.178000,-2.274862
2370.178000,-2.284730
2373.178000,-2.267957
2376.178000,-2.263395
2379.176000,-2.246911
2382.177000,-2.247275
2385.177000,-2.226980
2388.177000,-2.219352
2391.176000,-2.219702
2394.176000,-2.198017
2397.176000,-2.192343
2400.176000,-2.175084
2403.177000,-2.162214
2406.175000,-2.149778
2409.175000,-2.138285
2412.175000,-2.128773
2415.175000,-2.112337
2418.175000,-2.102958
2421.174000,-2.088377
2424.174000,-2.074912
2427.174000,-2.064894
2430.174000,-2.048155
2433.174000,-2.030913
2436.172000,-2.024559
2439.172000,-2.005101
2442.173000,-2.000603
2445.173000,-1.979129
2448.173000,-1.964725
2451.173000,-1.946565
2454.171000,-1.943248
2457.171000,-1.921430
2460.172000,-1.922161
2463.172000,-1.900615
2466.172000,-1.886534
2469.170000,-1.872926
2472.170000,-1.857581
2475.170000,-1.845690
2478.170000,-1.829304
2481.171000,-1.817253
2484.169000,-1.807697
2487.169000,-1.793892
2490.169000,-1.784618
2493.169000,-1.773625
2496.169000,-1.759605
2499.168000,-1.749590
2502.168000,-1.746398
2505.169000,-1.722565
2508.167000,-1.714559
2511.167000,-1.699533
2514.167000,-1.688434
2517.167000,-1.677627
2520.168000,-1.662751
2523.166000,-1.651057
2526.166000,-1.642603
2529.166000,-1.632918
2532.166000,-1.625422
2535.166000,-1.610362
2538.167000,-1.600388
2541.165000,-1.582908
2544.165000,-1.568691
2547.165000,-1.555780
2550.165000,-1.544413
2553.165000,-1.536601
2556.163000,-1.527711
2559.164000,-1.518016
2562.164000,-1.510292
2565.164000,-1.496769
2568.164000,-1.490161
2571.163000,-1.489997
2574.163000,-1.474278
2577.164000,-1.464916
2580.162000,-1.455054
2583.162000,-1.448320
2586.162000,-1.453334
2589.162000,-1.441892
2592.162000,-1.429694
2595.160000,-1.422372
2598.161000,-1.417993
2601.161000,-1.414910
2604.161000,-1.406007
2607.161000,-1.395965
2610.161000,-1.395030
2613.159000,-1.389319
2616.160000,-1.389387
2619.160000,-1.400146
2622.160000,-1.376982
2625.160000,-1.373947
2628.158000,-1.384196
2631.158000,-1.376683
2634.159000,-1.387844
2637.159000,-1.375551
2640.159000,-1.368684
2643.157000,-1.380627
2646.157000,-1.375514
2649.157000,-1.363463
2652.157000,-1.374589
2655.158000,-1.385892
2658.158000,-1.389805
2661.156000,-1.384155
2664.156000,-1.389227
2667.156000,-1.393538
2670.156000,-1.393667
2673.157000,-1.390465
2676.155000,-1.400809
2679.155000,-1.404110
2682.155000,-1.412034
2685.155000,-1.411660
2688.155000,-1.414230
2691.153000,-1.405154
2694.154000,-1.416705
2697.154000,-1.433461
2700.154000,-1.434712
2703.154000,-1.442830
2706.152000,-1.444207
2709.152000,-1.454045
2712.153000,-1.459307
2715.153000,-1.465440
2718.153000,-1.476396
2721.151000,-1.484106
2724.151000,-1.493941
2727.151000,-1.499400
2730.151000,-1.508630
2733.152000,-1.516591
2736.152000,-1.523642
2739.150000,-1.534836
2742.150000,-1.540714
2745.150000,-1.552214
2748.150000,-1.564228
2751.151000,-1.571010
2754.149000,-1.577686
2757.149000,-1.588969
2760.149000,-1.600779
2763.149000,-1.610688
2766.149000,-1.618232
2769.147000,-1.627546
2772.148000,-1.638445
2775.148000,-1.649215
2778.148000,-1.658413
2781.148000,-1.671311
2784.148000,-1.680989
2787.146000,-1.690470
2790.147000,-1.702097
2793.147000,-1.712985
2796.147000,-1.721042
2799.147000,-1.733899
2802.145000,-1.739712
2805.145000,-1.752198
2808.145000,-1.762063
2811.146000,-1.772435
2814.146000,-1.781838
2817.144000,-1.785880
2820.144000,-1.792614
2823.144000,-1.811481
2826.143000,-1.819786
2829.144000,-1.828424
2832.144000,-1.838072
2835.144000,-1.847648
2838.144000,-1.857911
2841.142000,-1.864261
2844.142000,-1.876944
2847.142000,-1.886222
2850.143000,-1.895489
2853.143000,-1.904293
2856.141000,-1.913648
2859.141000,-1.920407
2862.141000,-1.929320
2865.141000,-1.939692
2868.142000,-1.945600
2871.142000,-1.955635
2874.140000,-1.965419
2877.140000,-1.971429
2880.140000,-1.982576
2883.140000,-1.989297
2886.140000,-2.000396
2889.139000,-2.005444
2892.139000,-2.010166
2895.139000,-2.017648
2898.139000,-2.027017
2901.139000,-2.032514
2904.137000,-2.038650
2907.138000,-2.046156
2910.138000,-2.052030
2913.138000,-2.058778
2916.138000,-2.066845
2919.138000,-2.068280
2922.136000,-2.073168
2925.136000,-2.084614
2928.137000,-2.086967
2931.137000,-2.089574
2934.137000,-2.095849
2937.135000,-2.104776
2940.135000,-2.101975
2943.135000,-2.101251
2946.136000,-2.100071
2949.136000,-2.116790
2952.134000,-2.117793
2955.134000,-2.121311
2958.134000,-2.121695
2961.134000,-2.115685
2964.134000,-2.118204
2967.135000,-2.124051
2970.133000,-2.115604
2973.133000,-2.124235
2976.133000,-2.124469
2979.133000,-2.118888
2982.133000,-2.127991
2985.132000,-2.128335
2988.132000,-2.123065
2991.132000,-2.112619
2994.132000,-2.127311
2997.132000,-2.111031
3000.130000,-2.119697
3003.130000,-2.115264
3006.131000,-2.106388
3009.131000,-2.107030
3012.131000,-2.098433
3015.130000,-2.105891
3018.130000,-2.091484
3021.130000,-2.087725
3024.129000,-2.096230
3027.129000,-2.085291
3030.129000,-2.074769
3033.129000,-2.072121
3036.129000,-2.073974
3039.127000,-2.059611
3042.128000,-2.053183
3045.128000,-2.049233
3048.128000,-2.043239
3051.128000,-2.039731
3054.128000,-2.038354
3057.126000,-2.023356
3060.126000,-2.026035
3063.127000,-2.019603
3066.127000,-2.006933
3069.127000,-2.001538
3072.125000,-2.000705
3075.126000,-1.980098
3078.126000,-1.973815
3081.125000,-1.974441
3084.125000,-1.971653
3087.125000,-1.948721
3090.125000,-1.959657
3093.125000,-1.940841
3096.123000,-1.944720
3099.123000,-1.928511
3102.124000,-1.920750
3105.124000,-1.914604
3108.124000,-1.910997
3111.122000,-1.895607
3114.122000,-1.892694
3117.122000,-1.887734
3120.123000,-1.882458
3123.123000,-1.872719
3126.123000,-1.860375
3129.121000,-1.849609
3132.121000,-1.840227
3135.121000,-1.850541
3138.121000,-1.825681
3141.122000,-1.818555
3144.120000,-1.825840
3147.120000,-1.803744
3150.120000,-1.791292
3153.120000,-1.807487
3156.120000,-1.787807
3159.119000,-1.787858
3162.119000,-1.775450
3165.119000,-1.770422
3168.119000,-1.753299
3171.119000,-1.761699
3174.119000,-1.743662
3177.117000,-1.735268
3180.118000,-1.737757
3183.118000,-1.719587
3186.118000,-1.728544
3189.117000,-1.708073
3192.117000,-1.710653
3195.117000,-1.698075
3198.118000,-1.695338
3201.116000,-1.689801
3204.116000,-1.666953
3207.116000,-1.680745
3210.116000,-1.665178
3213.116000,-1.667259
3216.114000,-1.650707
3219.115000,-1.637911
3222.115000,-1.647144
3225.115000,-1.637850
3228.115000,-1.629287
3231.113000,-1.629912
3234.113000,-1.622039
3237.114000,-1.615917
3240.114000,-1.612633
3243.114000,-1.610665
3246.112000,-1.597665
3249.112000,-1.599875
3252.112000,-1.593344
3255.112000,-1.577533
3258.113000,-1.576690
3261.113000,-1.577469
3264.111000,-1.583105
3267.111000,-1.560567
3270.111000,-1.556195
3273.111000,-1.577122
3276.111000,-1.567770
3279.111000,-1.545585
3282.111000,-1.556317
3285.111000,-1.558802
3288.109000,-1.564014
3291.109000,-1.555638
3294.109000,-1.548410
3297.110000,-1.561699
3300.110000,-1.544107
3303.108000,-1.550895
3306.108000,-1.556872
3309.108000,-1.558327
3312.108000,-1.540041
3315.109000,-1.545293
3318.107000,-1.559176
3321.107000,-1.558656
3324.107000,-1.557283
3327.107000,-1.559547
3330.107000,-1.567165
3333.105000,-1.567604
3336.106000,-1.561383
3339.106000,-1.554376
3342.106000,-1.562324
3345.106000,-1.574447
3348.106000,-1.577292
3351.104000,-1.577357
3354.105000,-1.580491
3357.105000,-1.568851
3360.105000,-1.579441
3363.105000,-1.584638
3366.103000,-1.590961
3369.103000,-1.592953
3372.103000,-1.592933
3375.104000,-1.600810
3378.104000,-1.608180
3381.103000,-1.609924
3384.103000,-1.614979
3387.103000,-1.608129
3390.101000,-1.616580
3393.102000,-1.628461
3396.102000,-1.634468
3399.102000,-1.641100
3402.102000,-1.648409
3405.100000,-1.649374
3408.100000,-1.650306
3411.101000,-1.658883
3414.101000,-1.663870
3417.101000,-1.671406
3420.101000,-1.679062
3423.099000,-1.678005
3426.099000,-1.690957
3429.099000,-1.697711
3432.100000,-1.699843
3435.100000,-1.706968
3438.098000,-1.711190
3441.098000,-1.712128
3444.098000,-1.714066
3447.098000,-1.730489
3450.099000,-1.731417
3453.097000,-1.740684
3456.097000,-1.745161
3459.097000,-1.755009
3462.097000,-1.751651
3465.097000,-1.755013
3468.095000,-1.762481
3471.096000,-1.774519
3474.096000,-1.782490
3477.096000,-1.786250
3480.096000,-1.792743
3483.096000,-1.801004
3486.094000,-1.804968
3489.095000,-1.812497
3492.095000,-1.819704
3495.095000,-1.823712
3498.095000,-1.829597
3501.093000,-1.836766
3504.094000,-1.834567
3507.094000,-1.844894
3510.093000,-1.851017
3513.093000,-1.860566
3516.093000,-1.862905
3519.093000,-1.867491
3522.093000,-1.873871
3525.091000,-1.879780
3528.092000,-1.883679
3531.093000,-1.892507
3534.091000,-1.895893
3537.091000,-1.902219
3540.091000,-1.908294
3543.091000,-1.905004
3546.091000,-1.912727
3549.090000,-1.908002
3552.090000,-1.922841
3555.090000,-1.924717
3558.090000,-1.933630
3561.090000,-1.916429
3564.088000,-1.930853
3567.089000,-1.944475
3570.089000,-1.944546
3573.089000,-1.944414
3576.089000,-1.943271
3579.087000,-1.951607
3582.087000,-1.956641
3585.087000,-1.954082
3588.088000,-1.944502
3591.088000,-1.948381
3594.088000,-1.966007
3597.086000,-1.966462
3600.086000,-1.974910
3603.086000,-1.968900
3606.087000,-1.973686
3609.087000,-1.976719
3612.085000,-1.976474
3615.085000,-1.967360
3618.085000,-1.970800
3621.085000,-1.985173
3624.085000,-1.972204
3627.084000,-1.964855
3630.084000,-1.973173
3633.084000,-1.983864
3636.084000,-1.969332
3639.084000,-1.964600
3642.084000,-1.965069
3645.083000,-1.968577
3648.083000,-1.969899
3651.083000,-1.965160
3654.083000,-1.957641
3657.083000,-1.966690
3660.081000,-1.981002
3663.081000,-1.962655
3666.082000,-1.955067
3669.082000,-1.957172
3672.082000,-1.952368
3675.080000,-1.972191
3678.080000,-1.970178
3681.080000,-1.957335
3684.081000,-1.945076
3687.081000,-1.943893
3690.081000,-1.955863
3693.079000,-1.953929
3696.079000,-1.942877
3699.079000,-1.952181
3702.079000,-1.936639
3705.080000,-1.931805
3708.078000,-1.944587
3711.078000,-1.936792
3714.078000,-1.924095
3717.078000,-1.921889
3720.078000,-1.924459
3723.077000,-1.922630
3726.077000,-1.914930
3729.077000,-1.922960
3732.077000,-1.903158
3735.077000,-1.903708
3738.075000,-1.895828
3741.075000,-1.907543
3744.076000,-1.897263
3747.076000,-1.884080
3750.076000,-1.894982
3753.076000,-1.877995
3756.074000,-1.880041
3759.074000,-1.865628
3762.075000,-1.860814
3765.075000,-1.865114
3768.075000,-1.863992
3771.073000,-1.852360
3774.074000,-1.857166
3777.074000,-1.834975
3780.073000,-1.829709
3783.073000,-1.847206
3786.073000,-1.827017
3789.073000,-1.837252
3792.073000,-1.817301
3795.071000,-1.821482
3798.071000,-1.811498
3801.072000,-1.820190
3804.072000,-1.802880
3807.072000,-1.809961
3810.072000,-1.795623
3813.070000,-1.797621
3816.070000,-1.785543
3819.071000,-1.788847
3822.071000,-1.773288
3825.071000,-1.779662
3828.069000,-1.772506
3831.069000,-1.776949
3834.069000,-1.757566
3837.069000,-1.759643
3840.070000,-1.753887
3843.068000,-1.739188
3846.068000,-1.754577
3849.068000,-1.743845
3852.068000,-1.732331
3855.068000,-1.736061
3858.067000,-1.722667
3861.067000,-1.728592
3864.067000,-1.721579
3867.067000,-1.724258
3870.067000,-1.706523
3873.067000,-1.705350
3876.065000,-1.711652
3879.066000,-1.700336
3882.066000,-1.689515
3885.066000,-1.700557
3888.066000,-1.695182
3891.064000,-1.691793
3894.064000,-1.695124
3897.065000,-1.678028
3900.065000,-1.677369
3903.065000,-1.672341
3906.063000,-1.687968
3909.063000,-1.671981
3912.063000,-1.675356
3915.062000,-1.662156
3918.063000,-1.675526
3921.063000,-1.659287
3924.063000,-1.656071
3927.063000,-1.668979
3930.061000,-1.666229
3933.061000,-1.658515
3936.062000,-1.659066
3939.062000,-1.659811
3942.062000,-1.655483
3945.060000,-1.654365
3948.060000,-1.656942
3951.060000,-1.656088
3954.060000,-1.648399
3957.061000,-1.652461
3960.061000,-1.658767
3963.059000,-1.650680
3966.059000,-1.643915
3969.059000,-1.658342
3972.059000,-1.650897
3975.060000,-1.656918
3978.058000,-1.649840
3981.058000,-1.641018
3984.058000,-1.654406
3987.058000,-1.652291
3990.058000,-1.654409
3993.056000,-1.660314
3996.057000,-1.664165
3999.057000,-1.653583
4002.057000,-1.652407
4005.057000,-1.662319
4008.057000,-1.672909
4011.055000,-1.672729
4014.056000,-1.679293
4017.056000,-1.669819
4020.056000,-1.664876
4023.056000,-1.686598
4026.054000,-1.689148
4029.054000,-1.687928
4032.054000,-1.694560
4035.055000,-1.689359
4038.055000,-1.684899
4041.053000,-1.699639
4044.053000,-1.703222
4047.053000,-1.699782
4050.053000,-1.708535
4053.054000,-1.708134
4056.054000,-1.717343
4059.052000,-1.718924
4062.052000,-1.707634
4065.052000,-1.707991
4068.052000,-1.729187
4071.052000,-1.720321
4074.051000,-1.736081
4077.051000,-1.738277
4080.050000,-1.740065
4083.050000,-1.743964
4086.050000,-1.752222
4089.050000,-1.752439
4092.051000,-1.759622
4095.051000,-1.750039
4098.049000,-1.752456
4101.049000,-1.771055
4104.049000,-1.775229
4107.049000,-1.774182
4110.049000,-1.781460
4113.048000,-1.781532
4116.048000,-1.785074
4119.048000,-1.784153
4122.048000,-1.793253
4125.048000,-1.793369
4128.046000,-1.803536
4131.047000,-1.811396
4134.047000,-1.812035
4137.047000,-1.818263
4140.047000,-1.822101
4143.047000,-1.823100
4146.045000,-1.826734
4149.046000,-1.826670
4152.046000,-1.835957
4155.046000,-1.841879
4158.046000,-1.842746
4161.044000,-1.847342
4164.044000,-1.850068
4167.044000,-1.854930
4170.045000,-1.841111
4173.045000,-1.859056
4176.043000,-1.866396
4179.043000,-1.872372
4182.043000,-1.875455
4185.043000,-1.878957
4188.044000,-1.874085
4191.042000,-1.886378
4194.042000,-1.893211
4197.042000,-1.893775
4200.042000,-1.902002
4203.042000,-1.902097
4206.042000,-1.905493
4209.041000,-1.897742
4212.041000,-1.892082
4215.041000,-1.909338
4218.041000,-1.912445
4221.041000,-1.920458
4224.039000,-1.923456
4227.040000,-1.924486
4230.040000,-1.928521
4233.040000,-1.929551
4236.040000,-1.931812
4239.038000,-1.934164
4242.038000,-1.929252
4245.038000,-1.921324
4248.039000,-1.931591
4251.039000,-1.944070
4254.039000,-1.944417
4257.037000,-1.943951
4260.037000,-1.944584
4263.037000,-1.944594
4266.038000,-1.948510
4269.038000,-1.935881
4272.036000,-1.952073
4275.036000,-1.951923
4278.036000,-1.941201
4281.036000,-1.951331
4284.036000,-1.953252
4287.035000,-1.945780
4290.035000,-1.944393
4293.036000,-1.940494
4296.034000,-1.930564
4299.034000,-1.940412
4302.034000,-1.950828
4305.035000,-1.936279
4308.035000,-1.954037
4311.033000,-1.946402
4314.033000,-1.942972
4317.033000,-1.928830
4320.033000,-1.943370
4323.033000,-1.947691
4326.032000,-1.932009
4329.032000,-1.943547
4332.032000,-1.944414
4335.032000,-1.930476
4338.032000,-1.943282
4341.032000,-1.921369
4344.031000,-1.924234
4347.031000,-1.920386
4350.031000,-1.924489
4353.031000,-1.934450
4356.031000,-1.915695
4359.029000,-1.933059
4362.029000,-1.923962
4365.030000,-1.905371
4368.030000,-1.920991
4371.030000,-1.920583
4374.028000,-1.905085
4377.028000,-1.912856
4380.028000,-1.903685
4383.029000,-1.889118
4386.028000,-1.895587
4389.028000,-1.907349
4392.028000,-1.881381
4395.028000,-1.883896
4398.026000,-1.898531
4401.026000,-1.874204
4404.027000,-1.885987
4407.027000,-1.876904
4410.027000,-1.862402
4413.027000,-1.874606
4416.025000,-1.878314
4419.025000,-1.860766
4422.026000,-1.846421
4425.026000,-1.841060
4428.026000,-1.841957
4431.024000,-1.837582
4434.024000,-1.855956
4437.024000,-1.833068
4440.024000,-1.825126
4443.025000,-1.820109
4446.023000,-1.820629
4449.023000,-1.812076
4452.023000,-1.808258
4455.023000,-1.825708
4458.023000,-1.810781
4461.022000,-1.806960
4464.022000,-1.809836
4467.022000,-1.798373
4470.022000,-1.819052
4473.022000,-1.797778
4476.022000,-1.798104
4479.020000,-1.800701
4482.021000,-1.782970
4485.021000,-1.799834
4488.021000,-1.778374
4491.021000,-1.790398
4494.019000,-1.787171
4497.020000,-1.775321
4500.021000,-1.783126
4503.019000,-1.762264
4506.019000,-1.761788
4509.019000,-1.757926
4512.019000,-1.757477
4515.019000,-1.769141
4518.017000,-1.753507
4521.018000,-1.761172
4524.018000,-1.766023
4527.018000,-1.744117
4530.018000,-1.734028
4533.018000,-1.731614
4536.016000,-1.748625
4539.017000,-1.752694
4542.017000,-1.735999
4545.017000,-1.728089
4548.017000,-1.723394
4551.015000,-1.730326
4554.015000,-1.720736
4557.016000,-1.719458
4560.016000,-1.716143
4563.016000,-1.713594
4566.014000,-1.731536
4569.014000,-1.712479
4572.014000,-1.713848
4575.014000,-1.729234
4578.015000,-1.720977
4581.013000,-1.704123
4584.013000,-1.702453
4587.013000,-1.715946
4590.013000,-1.703208
4593.013000,-1.699108
4596.014000,-1.699748
4599.012000,-1.696083
4602.012000,-1.699958
4605.012000,-1.716143
4608.012000,-1.696807
4611.012000,-1.711204
4614.010000,-1.698571
4617.011000,-1.687951
4620.011000,-1.704286
4623.011000,-1.706669
4626.011000,-1.694135
4629.009000,-1.708878
4632.009000,-1.699928
4635.010000,-1.702001
4638.010000,-1.699748
4641.010000,-1.695049
4644.010000,-1.693530
4647.008000,-1.709936
4650.008000,-1.711880
4653.008000,-1.704520
4656.009000,-1.694064
4659.009000,-1.690875
4662.007000,-1.709147
4665.007000,-1.710177
4668.007000,-1.713114
4671.007000,-1.709915
4674.008000,-1.709344
4677.006000,-1.714392
4680.006000,-1.713889
4683.006000,-1.693948
4686.006000,-1.696858
4689.006000,-1.718485
4692.004000,-1.720100
4695.005000,-1.703657
4698.005000,-1.704333
4701.005000,-1.726590
4704.005000,-1.730659
4707.005000,-1.723064
4710.003000,-1.715035
4713.004000,-1.734412
4716.004000,-1.731940
4719.004000,-1.734629
4722.004000,-1.740531
4725.002000,-1.740527
4728.002000,-1.735931
4731.002000,-1.737611
4734.003000,-1.743383
4737.003000,-1.750600
4740.001000,-1.754401
4743.001000,-1.744294
4746.001000,-1.749074
4749.001000,-1.757416
4752.002000,-1.739623
4755.002000,-1.757970
4758.000000,-1.767247
4761.000000,-1.769899
4764.000000,-1.764609
4767.000000,-1.760938
4770.000000,-1.772088
4772.999000,-1.776035
4775.999000,-1.778598
4778.999000,-1.781528
4781.999000,-1.779213
4784.999000,-1.782348
4787.997000,-1.791431
4790.999000,-1.781875
4793.999000,-1.780247
4796.997000,-1.795432
4799.997000,-1.800484
4802.997000,-1.795262
4805.997000,-1.797207
4808.997000,-1.807497
4811.996000,-1.801660
4814.996000,-1.809061
4817.996000,-1.819653
4820.996000,-1.821761
4823.996000,-1.813993
4826.994000,-1.823138
4829.995000,-1.826809
4832.995000,-1.823811
4835.995000,-1.832612
4838.995000,-1.836246
4841.995000,-1.839394
4844.993000,-1.842399
4847.993000,-1.844085
4850.994000,-1.851333
4853.993000,-1.841012
4856.993000,-1.827741
4859.993000,-1.839782
4862.993000,-1.859539
4865.993000,-1.861412
4868.992000,-1.862942
4871.992000,-1.863404
4874.992000,-1.867817
4877.992000,-1.867419
4880.992000,-1.863115
4883.990000,-1.872763
4886.991000,-1.872858
4889.991000,-1.877502
4892.991000,-1.881561
4895.991000,-1.880303
4898.989000,-1.865818
4901.989000,-1.868833
4904.989000,-1.886949
4907.990000,-1.884090
4910.990000,-1.891994
4913.990000,-1.880908
4916.988000,-1.877356
4919.988000,-1.873888
4922.988000,-1.879521
4925.989000,-1.876452
4928.989000,-1.899133
4931.987000,-1.903807
4934.987000,-1.901896
4937.987000,-1.886222
4940.987000,-1.884325
4943.987000,-1.908651
4946.986000,-1.907200
4949.986000,-1.903634
4952.986000,-1.894183
4955.986000,-1.884104
4958.986000,-1.898531
4961.984000,-1.911204
4964.985000,-1.895767
4967.985000,-1.881340
4970.985000,-1.881656
4973.985000,-1.886935
4976.985000,-1.893867
4979.983000,-1.906802
4982.983000,-1.900102
4985.984000,-1.885457
4988.984000,-1.880293
4991.984000,-1.883696
4994.982000,-1.883104
4997.982000,-1.874004
5000.982000,-1.882156
5003.983000,-1.885215
5006.983000,-1.875303
5009.981000,-1.873011
5012.981000,-1.872216
5015.981000,-1.879521
5018.981000,-1.872257
5021.981000,-1.868490
5024.982000,-1.889985
5027.980000,-1.870329
5030.980000,-1.865291
5033.980000,-1.865672
5036.980000,-1.865352
5039.980000,-1.862973
5042.979000,-1.866896
5045.979000,-1.883369
5048.979000,-1.863455
5051.979000,-1.871811
5054.979000,-1.864247
5057.977000,-1.857115
5060.977000,-1.864309
5063.978000,-1.851448
5066.978000,-1.843065
5069.978000,-1.860515
5072.976000,-1.861977
5075.976000,-1.846016
5078.976000,-1.835029
5081.977000,-1.840291
5084.977000,-1.848794
5087.977000,-1.846210
5090.975000,-1.829060
5093.975000,-1.827955
5096.975000,-1.825395
5099.975000,-1.819473
5102.976000,-1.823270
5105.974000,-1.839095
5108.974000,-1.835457
5111.974000,-1.815227
5114.974000,-1.834506
5117.974000,-1.811892
5120.973000,-1.829981
5123.973000,-1.822322
5126.973000,-1.799906
5129.973000,-1.818681
5132.973000,-1.806219
5135.973000,-1.793100
5138.971000,-1.802462
5141.972000,-1.820221
5144.972000,-1.817321
5147.972000,-1.794688
5150.971000,-1.804726
5153.971000,-1.805379
5156.971000,-1.788868
5159.972000,-1.788895
5162.970000,-1.804944
5165.970000,-1.797547
5168.970000,-1.779914
5171.970000,-1.784506
5174.970000,-1.793668
5177.968000,-1.785122
5180.969000,-1.784224
5183.969000,-1.783048
5186.969000,-1.778357
5189.969000,-1.781379
5192.967000,-1.768389
5195.967000,-1.782201
5198.968000,-1.764463
5201.968000,-1.772751
5204.968000,-1.776201
5207.966000,-1.761849
5210.966000,-1.749098
5213.966000,-1.774539
5216.966000,-1.756199
5219.967000,-1.764154
5222.967000,-1.757824
5225.965000,-1.751236
5228.965000,-1.765813
5231.965000,-1.748360
5234.965000,-1.737665
5237.966000,-1.739909
5240.964000,-1.739144
5243.964000,-1.749845
5246.964000,-1.740942
5249.964000,-1.739854
5252.964000,-1.755645
5255.965000,-1.731322
5258.963000,-1.738124
5261.963000,-1.731828
5264.963000,-1.745317
5267.963000,-1.743434
5270.963000,-1.730244
5273.961000,-1.730380
5276.962000,-1.742224
5279.962000,-1.741116
5282.962000,-1.740388
5285.962000,-1.729309
5288.960000,-1.733912
5291.960000,-1.741541
5294.961000,-1.741153
5297.960000,-1.740548
5300.960000,-1.740517
5303.960000,-1.740531
5306.960000,-1.737519
5309.960000,-1.731974
5312.958000,-1.723112
5315.959000,-1.740854
5318.959000,-1.736693
5321.959000,-1.721225
5324.959000,-1.728830
5327.957000,-1.739253
5330.957000,-1.743706
5333.958000,-1.741483
5336.958000,-1.744773
5339.958000,-1.750790
5342.958000,-1.752830
5345.956000,-1.751219
5348.956000,-1.750794
5351.956000,-1.756682
5354.957000,-1.758310
5357.957000,-1.736635
5360.955000,-1.732348
5363.955000,-1.745555
5366.955000,-1.756553
5369.955000,-1.741819
5372.956000,-1.743213
5375.954000,-1.743917
5378.954000,-1.756009
5381.955000,-1.765949
5384.953000,-1.761162
5387.953000,-1.765840
5390.953000,-1.763297
5393.954000,-1.754295
5396.954000,-1.758075
5399.952000,-1.775929
5402.952000,-1.776623
5405.952000,-1.773067
5408.952000,-1.781284
5411.953000,-1.777422
5414.953000,-1.763919
5417.952000,-1.780196
5420.952000,-1.779105
5423.950000,-1.784771
5426.950000,-1.777446
5429.950000,-1.780944
5432.951000,-1.788314
5435.951000,-1.788392
5438.949000,-1.794596
5441.949000,-1.800236
5444.949000,-1.799518
5447.949000,-1.801816
5450.950000,-1.802676
5453.950000,-1.801463
5456.948000,-1.808337
5459.948000,-1.804189
5462.948000,-1.808088
5465.947000,-1.807925
5468.947000,-1.812701
5471.948000,-1.817770
5474.948000,-1.820605
5477.948000,-1.803553
5480.946000,-1.814867
5483.946000,-1.829148
5486.946000,-1.830678
5489.947000,-1.822125
5492.947000,-1.821003
5495.945000,-1.825619
5498.945000,-1.834951
5501.945000,-1.837929
5504.945000,-1.840509
5507.945000,-1.841260
5510.944000,-1.842790
5513.944000,-1.837079
5516.944000,-1.828370
5519.944000,-1.845438
5522.944000,-1.852574
5525.944000,-1.853148
5528.943000,-1.852757
5531.943000,-1.855511
5534.943000,-1.844840
5537.943000,-1.848919
5540.943000,-1.862738
5543.941000,-1.862952
5546.941000,-1.862956
5549.942000,-1.864139
5552.942000,-1.862871
5555.942000,-1.863897
5558.940000,-1.868633
5561.940000,-1.861732
5564.940000,-1.849728
5567.941000,-1.863704
5570.941000,-1.875051
5573.939000,-1.856313
5576.939000,-1.854906
5579.939000,-1.879803
5582.939000,-1.861949
5585.939000,-1.866732
5588.940000,-1.883346
5591.938000,-1.865927
5594.938000,-1.859376
5597.938000,-1.877580
5600.938000,-1.869816
5603.938000,-1.856327
5606.937000,-1.869462
5609.937000,-1.884760
5612.937000,-1.873382
5615.937000,-1.863585
5618.937000,-1.876411
5621.935000,-1.885426
5624.936000,-1.866202
5627.936000,-1.879463
5630.936000,-1.878399
5633.936000,-1.863296
5636.936000,-1.880714
5639.934000,-1.881632
5642.934000,-1.863877
5645.934000,-1.866311
5648.934000,-1.879307
5651.934000,-1.877142
5654.934000,-1.871104
5657.934000,-1.860579
5660.932000,-1.854882
5663.933000,-1.851833
5666.933000,-1.861232
5669.933000,-1.873746
5672.933000,-1.874031
5675.932000,-1.865696
5678.932000,-1.848664
5681.932000,-1.867321
5684.931000,-1.852360
5687.931000,-1.840978
5690.931000,-1.848746
5693.931000,-1.859794
5696.931000,-1.839282
5699.931000,-1.846971
5702.930000,-1.858761
5705.930000,-1.843310
5708.930000,-1.828625
5711.930000,-1.842488
5714.930000,-1.842538
5717.928000,-1.826894
5720.928000,-1.833819
5723.929000,-1.841859
5726.929000,-1.822631
5729.929000,-1.833459
5732.927000,-1.818423
5735.927000,-1.829593
5738.927000,-1.813881
5741.928000,-1.811835
5744.928000,-1.804998
5747.928000,-1.821122
5750.926000,-1.794990
5753.926000,-1.806348
5756.926000,-1.819901
5759.926000,-1.795990
5762.927000,-1.790452
5765.925000,-1.788558
5768.925000,-1.781290
5771.925000,-1.781739
5774.925000,-1.777939
5777.925000,-1.780243
5780.924000,-1.774216
5783.924000,-1.771112
5786.924000,-1.770266
5789.924000,-1.786196
5792.924000,-1.778146
5795.922000,-1.766877
5798.922000,-1.784479
5801.923000,-1.780220
5804.923000,-1.760924
5807.923000,-1.760530
5810.922000,-1.779220
5813.922000,-1.762607
5816.922000,-1.764031
5819.921000,-1.767414
5822.921000,-1.757423
5825.921000,-1.743808
5828.921000,-1.769433
5831.921000,-1.757015
5834.921000,-1.741846
5837.919000,-1.741201
5840.920000,-1.741445
5843.920000,-1.740534
5846.920000,-1.738433
5849.920000,-1.751447
5852.918000,-1.739593
5855.918000,-1.736441
5858.919000,-1.740925
5861.919000,-1.740810
5864.919000,-1.733695
5867.919000,-1.727851
5870.917000,-1.730309
5873.917000,-1.726338
5876.917000,-1.738501
5879.918000,-1.742074
5882.918000,-1.727385
5885.916000,-1.732352
5888.916000,-1.741221
5891.916000,-1.729547
5894.916000,-1.714001
5897.917000,-1.720178
5900.915000,-1.721419
5903.915000,-1.720165
5906.915000,-1.713478
5909.915000,-1.715378
5912.915000,-1.728521
5915.913000,-1.738352
5918.914000,-1.740174
5921.914000,-1.731410
5924.914000,-1.724465
5927.914000,-1.711853
5930.912000,-1.725519
5933.912000,-1.740466
5936.913000,-1.738396
5939.913000,-1.722606
5942.913000,-1.735102
5945.913000,-1.740640
5948.911000,-1.740619
5951.911000,-1.727103
5954.911000,-1.736023
5957.912000,-1.745358
5960.912000,-1.736047
5963.910000,-1.735048
5966.910000,-1.750145
5969.910000,-1.756872
5972.910000,-1.753428
5975.911000,-1.737475
5978.911000,-1.754826
5981.909000,-1.742482
5984.909000,-1.739406
5987.909000,-1.756532
5990.909000,-1.747704
5993.910000,-1.759986
5996.908000,-1.768202
5999.908000,-1.770997
6002.908000,-1.769613
6005.908000,-1.767618
6008.908000,-1.774709
6011.906000,-1.771364
6014.907000,-1.771405
6017.907000,-1.780780
6020.907000,-1.781355
6023.907000,-1.780937
6026.905000,-1.773421
6029.905000,-1.783772
6032.906000,-1.783204
6035.906000,-1.788698
6038.906000,-1.780315
6041.904000,-1.793739
6044.904000,-1.794718
6047.904000,-1.799930
6050.904000,-1.801833
6053.905000,-1.795300
6056.905000,-1.784024
6059.903000,-1.800246
6062.903000,-1.806899
6065.903000,-1.805246
6068.902000,-1.812028
6071.903000,-1.816679
6074.903000,-1.817977
6077.903000,-1.812956
6080.903000,-1.803268
6083.901000,-1.822138
6086.901000,-1.814806
6089.901000,-1.819704
6092.902000,-1.831402
6095.902000,-1.823896
6098.900000,-1.814133
6101.900000,-1.811811
6104.900000,-1.818409
6107.900000,-1.835332
6110.901000,-1.821608
6113.901000,-1.826687
6116.899000,-1.835808
6119.899000,-1.832476
6122.899000,-1.843705
6125.899000,-1.837728
6128.899000,-1.826860
6131.898000,-1.851265
6134.898000,-1.852288
6137.898000,-1.834448
6140.898000,-1.850208
6143.898000,-1.847420
6146.896000,-1.836919
6149.897000,-1.856483
6152.897000,-1.855766
6155.897000,-1.850306
6158.897000,-1.840597
6161.895000,-1.840193
6164.895000,-1.852574
6167.895000,-1.870315
6170.896000,-1.862993
6173.896000,-1.862884
6176.896000,-1.862898
6179.894000,-1.871621
6182.894000,-1.871189
6185.894000,-1.873752
6188.895000,-1.872212
6191.895000,-1.865624
6194.893000,-1.873555
6197.893000,-1.875625
6200.894000,-1.864203
6203.892000,-1.855208
6206.892000,-1.862595
6209.893000,-1.863081
6212.893000,-1.864649
6215.893000,-1.864380
6218.891000,-1.877570
6221.891000,-1.881564
6224.891000,-1.878488
6227.892000,-1.869955
6230.892000,-1.859927
6233.890000,-1.857098
6236.890000,-1.871505
6239.890000,-1.869139
6242.890000,-1.864730
6245.890000,-1.866454
6248.891000,-1.857047
6251.889000,-1.870734
6254.889000,-1.873508
6257.889000,-1.870268
6260.889000,-1.860025
6263.889000,-1.861494
6266.888000,-1.868687
6269.888000,-1.855983
6272.888000,-1.871784
6275.888000,-1.853454
6278.888000,-1.843732
6281.886000,-1.851309
6284.886000,-1.864543
6287.887000,-1.844537
6290.887000,-1.857619
6293.887000,-1.860899
6296.885000,-1.852387
6299.885000,-1.844813
6302.885000,-1.857523
6305.886000,-1.835039
6308.886000,-1.830997
6311.886000,-1.848593
6314.884000,-1.852696
6317.884000,-1.843293
6320.884000,-1.829668
6323.884000,-1.822927
6326.885000,-1.836409
6329.883000,-1.845234
6332.883000,-1.816849
6335.883000,-1.819806
6338.883000,-1.819494
6341.883000,-1.815904
6344.882000,-1.841716
6347.882000,-1.827662
6350.882000,-1.810186
6353.882000,-1.811583
6356.882000,-1.818324
6359.882000,-1.818773
6362.881000,-1.804533
6365.881000,-1.817267
6368.881000,-1.827846
6371.881000,-1.815156
6374.881000,-1.802238
6377.879000,-1.820670
6380.879000,-1.818613
6383.880000,-1.792284
6386.880000,-1.794361
6389.880000,-1.812025
6392.878000,-1.790197
6395.878000,-1.810291
6398.878000,-1.788354
6401.879000,-1.788688
6404.879000,-1.808173
6407.877000,-1.795942
6410.877000,-1.781069
6413.877000,-1.782320
6416.877000,-1.782035
6419.877000,-1.782518
6422.878000,-1.791292
6425.877000,-1.788548
6428.877000,-1.788310
6431.875000,-1.783803
6434.875000,-1.778962
6437.875000,-1.783823
6440.876000,-1.775593
6443.876000,-1.785363
6446.876000,-1.781457
6449.874000,-1.767897
6452.874000,-1.782905
6455.874000,-1.780658
6458.874000,-1.764670
6461.875000,-1.762046
6464.873000,-1.760965
6467.873000,-1.768869
6470.873000,-1.778129
6473.873000,-1.767155
6476.873000,-1.778748
6479.872000,-1.760632
6482.872000,-1.764239
6485.872000,-1.777072
6488.872000,-1.770976
6491.872000,-1.756743
6494.872000,-1.751854
6497.870000,-1.765235
6500.871000,-1.778510
6503.871000,-1.772411
6506.871000,-1.758551
6509.871000,-1.770127
6512.869000,-1.774998
6515.869000,-1.758361
6518.870000,-1.751586
6521.870000,-1.753330
6524.870000,-1.760567
6527.868000,-1.769923
6530.868000,-1.776232
6533.868000,-1.779125
6536.868000,-1.773064
6539.869000,-1.758844
6542.867000,-1.751130
6545.867000,-1.759524
6548.867000,-1.776426
6551.867000,-1.767257
6554.867000,-1.752878
6557.868000,-1.770993
6560.866000,-1.781216
6563.866000,-1.772615
6566.866000,-1.767679
6569.866000,-1.770728
6572.866000,-1.776599
6575.864000,-1.780505
6578.865000,-1.768063
6581.865000,-1.761128
6584.865000,-1.780390
6587.865000,-1.766037
6590.863000,-1.780896
6593.863000,-1.768318
6596.864000,-1.782378
6599.864000,-1.782018
6602.864000,-1.785866
6605.864000,-1.782334
6608.862000,-1.782276
6611.862000,-1.781369
6614.862000,-1.787817
6617.863000,-1.792145
6620.863000,-1.779635
6623.861000,-1.771197
6626.861000,-1.778129
6629.861000,-1.793773
6632.861000,-1.791897
6635.862000,-1.795908
6638.860000,-1.790914
6641.860000,-1.796952
6644.860000,-1.784907
6647.860000,-1.785523
6650.860000,-1.801810
6653.860000,-1.803006
6656.859000,-1.806582
6659.859000,-1.801799
6662.859000,-1.779516
6665.859000,-1.808078
6668.859000,-1.798957
6671.857000,-1.797812
6674.858000,-1.803390
6677.858000,-1.811627
6680.858000,-1.811903
6683.858000,-1.807534
6686.856000,-1.818263
6689.856000,-1.804679
6692.856000,-1.788919
6695.857000,-1.810261
6698.857000,-1.815591
6701.855000,-1.821839
6704.855000,-1.817162
6707.855000,-1.819174
6710.855000,-1.824066
6713.856000,-1.815693
6716.856000,-1.807636
6719.854000,-1.825701
6722.854000,-1.816757
6725.854000,-1.812083
6728.854000,-1.808608
6731.854000,-1.810740
6734.853000,-1.824127
6737.853000,-1.836351
6740.853000,-1.827989
6743.853000,-1.813099
6746.853000,-1.830586
6749.851000,-1.832928
6752.852000,-1.828356
6755.852000,-1.839329
6758.852000,-1.834397
6761.852000,-1.817828
6764.850000,-1.839408
6767.850000,-1.844826
6770.851000,-1.829954
6773.851000,-1.825014
6776.850000,-1.849161
6779.850000,-1.847162
6782.850000,-1.843708
6785.850000,-1.842579
6788.850000,-1.847478
6791.849000,-1.853179
6794.849000,-1.852720
6797.849000,-1.853447
6800.849000,-1.861310
6803.849000,-1.853029
6806.847000,-1.837891
6809.848000,-1.834689
6812.848000,-1.855235
6815.848000,-1.838670
6818.848000,-1.855137
6821.846000,-1.850993
6824.846000,-1.837718
6827.846000,-1.851897
6830.847000,-1.856684
6833.847000,-1.838918
6836.846000,-1.847114
6839.846000,-1.862854
6842.846000,-1.862840
6845.844000,-1.846105
6848.845000,-1.851625
6851.845000,-1.862011
6854.845000,-1.848161
6857.845000,-1.846329
6860.843000,-1.862374
6863.843000,-1.862833
6866.843000,-1.856153
6869.844000,-1.856344
6872.844000,-1.852319
6875.844000,-1.841944
6878.842000,-1.859128
6881.842000,-1.863265
6884.842000,-1.851299
6887.843000,-1.840118
6890.843000,-1.847383
6893.841000,-1.856714
6896.841000,-1.863829
6899.842000,-1.854148
6902.840000,-1.836423
6905.840000,-1.848909
6908.841000,-1.859141
6911.841000,-1.862147
6914.841000,-1.848124
6917.839000,-1.839578
6920.839000,-1.852598
6923.839000,-1.859801
6926.840000,-1.837565
6929.840000,-1.858020
6932.838000,-1.846458
6935.838000,-1.835576
6938.838000,-1.852971
6941.838000,-1.834247
6944.838000,-1.837082
6947.839000,-1.833663
6950.837000,-1.828798
6953.837000,-1.823117
6956.837000,-1.836127
6959.837000,-1.847458
6962.837000,-1.830001
6965.836000,-1.848620
6968.836000,-1.843388
6971.836000,-1.825137
6974.836000,-1.844728
6977.836000,-1.828183
6980.834000,-1.825126
6983.834000,-1.831704
6986.835000,-1.834509
6989.835000,-1.817566
6992.834000,-1.824855
6995.834000,-1.833710
6998.834000,-1.814880
7001.834000,-1.831055
7004.833000,-1.823335
7007.833000,-1.808153
7010.833000,-1.826102
7013.833000,-1.808136
7016.833000,-1.800739
7019.831000,-1.801653
7022.831000,-1.801357
7025.832000,-1.811556
7028.832000,-1.801782
7031.832000,-1.818117
7034.832000,-1.811685
7037.830000,-1.798274
7040.830000,-1.817903
7043.831000,-1.805420
7046.831000,-1.800531
7049.831000,-1.806511
7052.829000,-1.790843
7055.829000,-1.793039
7058.829000,-1.786400
7061.829000,-1.807908
7064.830000,-1.804719
7067.828000,-1.790160
7070.828000,-1.793926
7073.828000,-1.796163
7076.828000,-1.780114
7079.828000,-1.783510
7082.829000,-1.794878
7085.827000,-1.792274
7088.827000,-1.779268
7091.826000,-1.794229
7094.826000,-1.780315
7097.826000,-1.786641
7100.827000,-1.783969
7103.827000,-1.774522
7106.827000,-1.784833
7109.825000,-1.770293
7112.825000,-1.780913
7115.825000,-1.781369
7118.825000,-1.773009
7121.826000,-1.783888
7124.824000,-1.776290
7127.824000,-1.778612
7130.824000,-1.765979
7133.824000,-1.765034
7136.824000,-1.760227
7139.823000,-1.776946
7142.823000,-1.764419
7145.823000,-1.769555
7148.823000,-1.776881
7151.823000,-1.779873
7154.821000,-1.764589
7157.821000,-1.778578
7160.822000,-1.762097
7163.822000,-1.779540
7166.822000,-1.768930
7169.822000,-1.768702
7172.820000,-1.781318
7175.820000,-1.767744
7178.821000,-1.765490
7181.821000,-1.782205
7184.821000,-1.770677
7187.819000,-1.769464
7190.819000,-1.771194
7193.819000,-1.780940
7196.819000,-1.781314
7199.820000,-1.780777
7202.818000,-1.780978
7205.818000,-1.782470
