Time(s),Position(V)
0.357000,0.997919
3.373000,0.986095
6.373000,0.974762
9.371000,0.962150
12.371000,0.951897
15.371000,0.937004
18.371000,0.925391
21.372000,0.913146
24.370000,0.901782
27.370000,0.892002
30.370000,0.880518
33.370000,0.868987
36.370000,0.856399
39.371000,0.844980
42.369000,0.831896
45.369000,0.826970
48.369000,0.812760
51.369000,0.802633
54.369000,0.790718
57.367000,0.774187
60.368000,0.769794
63.368000,0.748296
66.368000,0.702764
69.368000,0.739512
72.366000,0.715427
75.366000,0.703389
78.367000,0.681534
81.367000,0.661556
84.367000,0.635009
87.365000,0.605974
90.365000,0.578225
93.365000,0.548252
96.365000,0.514808
99.366000,0.485045
102.366000,0.450357
105.364000,0.414377
108.364000,0.373516
111.364000,0.331407
114.364000,0.288652
117.365000,0.245479
120.363000,0.205481
123.363000,0.157752
126.363000,0.109966
129.363000,0.065749
132.363000,0.018622
135.361000,-0.036429
138.362000,-0.084714
141.362000,-0.135778
144.402000,-0.191430
147.362000,-0.241851
150.362000,-0.298714
153.360000,-0.352062
156.361000,-0.409618
159.361000,-0.466559
162.361000,-0.519961
165.361000,-0.581454
168.359000,-0.640159
171.359000,-0.700024
174.359000,-0.759406
177.360000,-0.815415
180.360000,-0.872737
183.359000,-0.930371
186.359000,-0.993020
189.359000,-1.050828
192.357000,-1.108353
195.358000,-1.168181
198.358000,-1.232889
201.358000,-1.294148
204.358000,-1.354699
207.356000,-1.419707
210.356000,-1.480088
213.356000,-1.550413
216.357000,-1.613194
219.357000,-1.673606
222.355000,-1.727154
225.355000,-1.780458
228.355000,-1.829019
231.355000,-1.879708
234.356000,-1.934365
237.356000,-1.990446
240.354000,-2.048437
243.354000,-2.108788
246.354000,-2.170505
249.354000,-2.230842
252.354000,-2.280637
255.354000,-2.331898
258.353000,-2.377219
261.353000,-2.417238
264.353000,-2.460006
267.353000,-2.502625
270.351000,-2.542726
273.352000,-2.585725
276.352000,-2.632566
279.352000,-2.686105
282.352000,-2.737131
285.352000,-2.783234
288.350000,-2.829052
291.350000,-2.870995
294.351000,-2.903990
297.351000,-2.933572
300.351000,-2.962314
303.349000,-2.993079
306.349000,-3.017178
309.349000,-3.044146
312.350000,-3.072549
315.350000,-3.103745
318.350000,-3.130428
321.348000,-3.163637
324.348000,-3.197700
327.348000,-3.224518
330.348000,-3.253719
333.349000,-3.281078
336.347000,-3.307149
339.347000,-3.325931
342.347000,-3.339471
345.347000,-3.352062
348.347000,-3.368716
351.346000,-3.380713
354.346000,-3.390592
357.346000,-3.398591
360.346000,-3.397843
363.346000,-3.406423
366.344000,-3.409993
369.344000,-3.416928
372.345000,-3.412124
375.345000,-3.412359
378.345000,-3.413831
381.345000,-3.410003
384.343000,-3.407997
387.343000,-3.406287
390.344000,-3.401361
393.344000,-3.396969
396.344000,-3.387808
399.342000,-3.382743
402.342000,-3.366680
405.342000,-3.362907
408.343000,-3.340933
411.343000,-3.328406
414.341000,-3.313836
417.341000,-3.294153
420.341000,-3.271233
423.341000,-3.256116
426.341000,-3.224600
429.340000,-3.199648
432.340000,-3.166833
435.340000,-3.136605
438.340000,-3.107594
441.340000,-3.078246
444.340000,-3.053903
447.339000,-3.027761
450.340000,-3.003502
453.338000,-2.982663
456.338000,-2.956834
459.338000,-2.928085
462.338000,-2.904160
465.338000,-2.874673
468.339000,-2.845135
471.337000,-2.809036
474.337000,-2.771169
477.337000,-2.732881
480.337000,-2.688875
483.337000,-2.646137
486.336000,-2.604028
489.336000,-2.563931
492.336000,-2.527180
495.336000,-2.481851
498.335000,-2.449672
501.335000,-2.418914
504.335000,-2.379201
507.336000,-2.341239
510.334000,-2.306147
513.334000,-2.269059
516.334000,-2.228632
519.334000,-2.191371
522.334000,-2.152226
525.333000,-2.106843
528.333000,-2.062028
531.333000,-2.017131
534.333000,-1.977749
537.333000,-1.938872
540.333000,-1.899299
543.331000,-1.860205
546.332000,-1.824345
549.332000,-1.788249
552.332000,-1.754387
555.332000,-1.718302
558.331000,-1.685966
561.331000,-1.650537
564.330000,-1.617824
567.330000,-1.580168
570.330000,-1.544022
573.330000,-1.505224
576.330000,-1.466500
579.330000,-1.433257
582.328000,-1.396767
585.329000,-1.362215
588.329000,-1.324773
591.329000,-1.294447
594.329000,-1.258637
597.327000,-1.226216
600.327000,-1.192296
603.328000,-1.166219
606.328000,-1.137052
609.328000,-1.109061
612.326000,-1.081606
615.326000,-1.053371
618.326000,-1.033236
621.326000,-1.006754
624.327000,-0.983277
627.327000,-0.959841
630.325000,-0.940937
633.325000,-0.923266
636.325000,-0.898474
639.325000,-0.880851
642.326000,-0.863786
645.324000,-0.846214
648.324000,-0.830665
651.324000,-0.812998
654.324000,-0.801610
657.324000,-0.790109
660.322000,-0.778837
663.323000,-0.767364
666.323000,-0.759749
669.323000,-0.748639
672.323000,-0.738329
675.321000,-0.732142
678.321000,-0.723177
681.322000,-0.719843
684.322000,-0.717800
687.322000,-0.715746
690.322000,-0.707693
693.320000,-0.708543
696.320000,-0.710916
699.320000,-0.709804
702.321000,-0.708546
705.321000,-0.718347
708.319000,-0.714556
711.319000,-0.727831
714.319000,-0.725673
717.318000,-0.740630
720.319000,-0.742541
723.319000,-0.758552
726.319000,-0.761058
729.319000,-0.779211
732.317000,-0.784371
735.317000,-0.800655
738.318000,-0.808273
741.318000,-0.823985
744.318000,-0.836522
747.316000,-0.850277
750.316000,-0.868307
753.316000,-0.889714
756.316000,-0.909910
759.317000,-0.926805
762.317000,-0.947335
765.315000,-0.964335
768.315000,-0.989542
771.315000,-1.011482
774.314000,-1.034252
777.315000,-1.054108
780.315000,-1.080233
783.315000,-1.102510
786.315000,-1.126020
789.313000,-1.149348
792.313000,-1.179691
795.313000,-1.206312
798.314000,-1.235531
801.314000,-1.261108
804.312000,-1.292132
807.312000,-1.322057
810.312000,-1.353924
813.312000,-1.384295
816.313000,-1.415464
819.311000,-1.449105
822.311000,-1.480295
825.311000,-1.515544
828.311000,-1.548155
831.311000,-1.582823
834.311000,-1.613340
837.310000,-1.649221
840.310000,-1.677719
843.310000,-1.712914
846.310000,-1.743023
849.310000,-1.772843
852.308000,-1.801500
855.309000,-1.829859
858.309000,-1.855776
861.309000,-1.886096
864.309000,-1.920413
867.307000,-1.949023
870.307000,-1.982766
873.307000,-2.017665
876.308000,-2.051055
879.308000,-2.088265
882.308000,-2.122131
885.306000,-2.155908
888.306000,-2.189589
891.305000,-2.223438
894.306000,-2.257667
897.306000,-2.284839
900.305000,-2.315254
903.305000,-2.344166
906.305000,-2.364618
909.305000,-2.394410
912.305000,-2.416748
915.304000,-2.436866
918.304000,-2.461992
921.304000,-2.485356
924.304000,-2.508948
927.304000,-2.529236
930.302000,-2.549926
933.303000,-2.575768
936.303000,-2.602226
939.303000,-2.623769
942.303000,-2.647918
945.303000,-2.673295
948.301000,-2.700770
951.301000,-2.722931
954.302000,-2.746877
957.302000,-2.767828
960.302000,-2.787562
963.300000,-2.806480
966.300000,-2.826186
969.300000,-2.841321
972.301000,-2.854708
975.301000,-2.868414
978.299000,-2.882036
981.299000,-2.893142
984.299000,-2.901121
987.299000,-2.905662
990.299000,-2.920436
993.300000,-2.926899
996.298000,-2.925080
999.298000,-2.935006
1002.298000,-2.933555
1005.298000,-2.943984
1008.298000,-2.949889
1011.297000,-2.948621
1014.297000,-2.955668
1017.297000,-2.954213
1020.297000,-2.946731
1023.297000,-2.959608
1026.295000,-2.952772
1029.295000,-2.955179
1032.296000,-2.950702
1035.296000,-2.949957
1038.296000,-2.941989
1041.294000,-2.938715
1044.294000,-2.933449
1047.294000,-2.930682
1050.295000,-2.928755
1053.295000,-2.919801
1056.295000,-2.918485
1059.293000,-2.907892
1062.293000,-2.899825
1065.293000,-2.885350
1068.293000,-2.879017
1071.294000,-2.865120
1074.292000,-2.854014
1077.292000,-2.836249
1080.293000,-2.825826
1083.291000,-2.807479
1086.291000,-2.794364
1089.292000,-2.777156
1092.292000,-2.759819
1095.292000,-2.741482
1098.290000,-2.721428
1101.290000,-2.697942
1104.290000,-2.675247
1107.290000,-2.651733
1110.290000,-2.629432
1113.290000,-2.604429
1116.290000,-2.585569
1119.290000,-2.559590
1122.288000,-2.538361
1125.288000,-2.515843
1128.289000,-2.488290
1131.289000,-2.470868
1134.289000,-2.450858
1137.287000,-2.428524
1140.287000,-2.406604
1143.287000,-2.385636
1146.288000,-2.361538
1149.288000,-2.342042
1152.288000,-2.318470
1155.286000,-2.297509
1158.286000,-2.273988
1161.286000,-2.249032
1164.286000,-2.223948
1167.287000,-2.198330
1170.286000,-2.173632
1173.286000,-2.145390
1176.284000,-2.117670
1179.284000,-2.088993
1182.284000,-2.060713
1185.285000,-2.029213
1188.285000,-2.003625
1191.285000,-1.974829
1194.283000,-1.947279
1197.283000,-1.924799
1200.283000,-1.901067
1203.283000,-1.877495
1206.284000,-1.855157
1209.282000,-1.830909
1212.282000,-1.808993
1215.282000,-1.784775
1218.282000,-1.764171
1221.282000,-1.745807
1224.283000,-1.727321
1227.281000,-1.703895
1230.281000,-1.686496
1233.281000,-1.662884
1236.281000,-1.644068
1239.281000,-1.623100
1242.279000,-1.607911
1245.280000,-1.583129
1248.280000,-1.561923
1251.280000,-1.541363
1254.280000,-1.524549
1257.278000,-1.503945
1260.278000,-1.481448
1263.279000,-1.461840
1266.279000,-1.448905
1269.279000,-1.428008
1272.277000,-1.411480
1275.277000,-1.395387
1278.277000,-1.376041
1281.277000,-1.362310
1284.278000,-1.347890
1287.278000,-1.330525
1290.276000,-1.319613
1293.276000,-1.303884
1296.276000,-1.299260
1299.276000,-1.282348
1302.277000,-1.269858
1305.275000,-1.256475
1308.276000,-1.249842
1311.276000,-1.240293
1314.274000,-1.241871
1317.274000,-1.232209
1320.274000,-1.216354
1323.275000,-1.207747
1326.275000,-1.200336
1329.273000,-1.199853
1332.273000,-1.192470
1335.273000,-1.194560
1338.273000,-1.188700
1341.274000,-1.183658
1344.272000,-1.177356
1347.272000,-1.193571
1350.272000,-1.176411
1353.272000,-1.185440
1356.272000,-1.176465
1359.272000,-1.192368
1362.271000,-1.192629
1365.272000,-1.194095
1368.270000,-1.193014
1371.270000,-1.199612
1374.270000,-1.207315
1377.270000,-1.203389
1380.271000,-1.216004
1383.271000,-1.228973
1386.269000,-1.219944
1389.269000,-1.238182
1392.269000,-1.247572
1395.269000,-1.246535
1398.269000,-1.262590
1401.268000,-1.273530
1404.268000,-1.282909
1407.268000,-1.292924
1410.268000,-1.304479
1413.268000,-1.312624
1416.266000,-1.327452
1419.267000,-1.339082
1422.267000,-1.355583
1425.267000,-1.363935
1428.267000,-1.376282
1431.265000,-1.396601
1434.265000,-1.406177
1437.265000,-1.422943
1440.266000,-1.439250
1443.266000,-1.450955
1446.266000,-1.470416
1449.264000,-1.488420
1452.264000,-1.511570
1455.264000,-1.529030
1458.265000,-1.545310
1461.265000,-1.565550
1464.263000,-1.581232
1467.263000,-1.600218
1470.263000,-1.614897
1473.263000,-1.635664
1476.263000,-1.655045
1479.262000,-1.670036
1482.262000,-1.688376
1485.262000,-1.706037
1488.262000,-1.723724
1491.262000,-1.742285
1494.262000,-1.761070
1497.261000,-1.774893
1500.261000,-1.792485
1503.261000,-1.809142
1506.261000,-1.826524
1509.261000,-1.843942
1512.259000,-1.862259
1515.260000,-1.882037
1518.260000,-1.901210
1521.260000,-1.918537
1524.260000,-1.937723
1527.258000,-1.953694
1530.258000,-1.975372
1533.258000,-1.993917
1536.259000,-2.014711
1539.259000,-2.033126
1542.257000,-2.053295
1545.257000,-2.071472
1548.257000,-2.091702
1551.257000,-2.112626
1554.258000,-2.130249
1557.258000,-2.149870
1560.256000,-2.168622
1563.256000,-2.189008
1566.256000,-2.207076
1569.256000,-2.226035
1572.256000,-2.241282
1575.255000,-2.259248
1578.256000,-2.273988
1581.256000,-2.285818
1584.254000,-2.305011
1587.254000,-2.316763
1590.254000,-2.332204
1593.255000,-2.343571
1596.255000,-2.355072
1599.253000,-2.362024
1602.253000,-2.373929
1605.253000,-2.386218
1608.253000,-2.385113
1611.253000,-2.401879
1614.254000,-2.412502
1617.252000,-2.421120
1620.252000,-2.431730
1623.252000,-2.437873
1626.252000,-2.439705
1629.252000,-2.443550
1632.251000,-2.461757
1635.251000,-2.455951
1638.251000,-2.471782
1641.250000,-2.477694
1644.250000,-2.481396
1647.250000,-2.489262
1650.250000,-2.488314
1653.251000,-2.486342
1656.249000,-2.504784
1659.249000,-2.503370
1662.249000,-2.506178
1665.249000,-2.504730
1668.249000,-2.495640
1671.248000,-2.509373
1674.248000,-2.511281
1677.248000,-2.513188
1680.248000,-2.513283
1683.248000,-2.495279
1686.248000,-2.504349
1689.246000,-2.498291
1692.247000,-2.495011
1695.247000,-2.498804
1698.247000,-2.486995
1701.247000,-2.485101
1704.245000,-2.477673
1707.245000,-2.477252
1710.246000,-2.472625
1713.246000,-2.468937
1716.246000,-2.464460
1719.244000,-2.461754
1722.244000,-2.453898
1725.244000,-2.450111
1728.244000,-2.443774
1731.245000,-2.435299
1734.243000,-2.435180
1737.243000,-2.426552
1740.243000,-2.421232
1743.243000,-2.412931
1746.243000,-2.399034
1749.242000,-2.392092
1752.242000,-2.382427
1755.242000,-2.373205
1758.242000,-2.360888
1761.242000,-2.351975
1764.242000,-2.339451
1767.240000,-2.325704
1770.241000,-2.311532
1773.241000,-2.301721
1776.241000,-2.288925
1779.241000,-2.276707
1782.239000,-2.267019
1785.239000,-2.255406
1788.240000,-2.247217
1791.240000,-2.227657
1794.240000,-2.211567
1797.238000,-2.196157
1800.238000,-2.183368
1803.238000,-2.167510
1806.238000,-2.151478
1809.239000,-2.136585
1812.239000,-2.119244
1815.237000,-2.104355
1818.237000,-2.087864
1821.237000,-2.068650
1824.237000,-2.050208
1827.238000,-2.032582
1830.236000,-2.018580
1833.236000,-2.000233
1836.236000,-1.983120
1839.236000,-1.967795
1842.236000,-1.951481
1845.234000,-1.937380
1848.235000,-1.922293
1851.235000,-1.907210
1854.235000,-1.892432
1857.235000,-1.880439
1860.235000,-1.863289
1863.233000,-1.858751
1866.234000,-1.841216
1869.234000,-1.825579
1872.234000,-1.815591
1875.234000,-1.803659
1878.232000,-1.789429
1881.232000,-1.780750
1884.233000,-1.767686
1887.233000,-1.756226
1890.233000,-1.747731
1893.231000,-1.733681
1896.231000,-1.719107
1899.231000,-1.708491
1902.231000,-1.696994
1905.232000,-1.694308
1908.232000,-1.673249
1911.230000,-1.671372
1914.230000,-1.655772
1917.230000,-1.646543
1920.230000,-1.636942
1923.231000,-1.623936
1926.229000,-1.615414
1929.229000,-1.608142
1932.228000,-1.598284
1935.228000,-1.582840
1938.228000,-1.575460
1941.228000,-1.560798
1944.229000,-1.566761
1947.229000,-1.545341
1950.227000,-1.551830
1953.227000,-1.532701
1956.227000,-1.527191
1959.227000,-1.515541
1962.228000,-1.508800
1965.226000,-1.501304
1968.226000,-1.493376
1971.226000,-1.492241
1974.226000,-1.486156
1977.226000,-1.486564
1980.224000,-1.482842
1983.225000,-1.469318
1986.225000,-1.465222
1989.225000,-1.465066
1992.225000,-1.461619
1995.225000,-1.454980
1998.223000,-1.456468
2001.224000,-1.458566
2004.224000,-1.459008
2007.224000,-1.451923
2010.224000,-1.453589
2013.222000,-1.460816
2016.222000,-1.457057
2019.222000,-1.455275
2022.223000,-1.464923
2025.223000,-1.471521
2028.221000,-1.470467
2031.221000,-1.470386
2034.221000,-1.471936
2037.221000,-1.479571
2040.222000,-1.469655
2043.222000,-1.487009
2046.220000,-1.486272
2049.220000,-1.495766
2052.220000,-1.496412
2055.220000,-1.498975
2058.220000,-1.503221
2061.219000,-1.511013
2064.219000,-1.519879
2067.219000,-1.524281
2070.219000,-1.527922
2073.219000,-1.537569
2076.217000,-1.544396
2079.218000,-1.551630
2082.218000,-1.552323
2085.218000,-1.564299
2088.218000,-1.576262
2091.218000,-1.582208
2094.216000,-1.590812
2097.216000,-1.600374
2100.217000,-1.610991
2103.217000,-1.616838
2106.217000,-1.629542
2109.215000,-1.640957
2112.215000,-1.648609
2115.215000,-1.653494
2118.216000,-1.660321
2121.216000,-1.673694
2124.214000,-1.681288
2127.214000,-1.693265
2130.214000,-1.700924
2133.214000,-1.705000
2136.214000,-1.720603
2139.213000,-1.731519
2142.213000,-1.741258
2145.213000,-1.752507
2148.213000,-1.763392
2151.213000,-1.770327
2154.213000,-1.781845
2157.212000,-1.791394
2160.212000,-1.803608
2163.212000,-1.812045
2166.212000,-1.820377
2169.212000,-1.832554
2172.210000,-1.839955
2175.211000,-1.851700
2178.211000,-1.861191
2181.211000,-1.870530
2184.211000,-1.880687
2187.209000,-1.891583
2190.209000,-1.903198
2193.210000,-1.912782
2196.209000,-1.919319
2199.209000,-1.932308
2202.209000,-1.942955
2205.209000,-1.952851
2208.209000,-1.963352
2211.207000,-1.976209
2214.207000,-1.989021
2217.208000,-2.000892
2220.208000,-2.007793
2223.208000,-2.021221
2226.208000,-2.031922
2229.206000,-2.042325
2232.206000,-2.054420
2235.207000,-2.064194
2238.207000,-2.070156
2241.207000,-2.084645
2244.205000,-2.091495
2247.205000,-2.104304
2250.205000,-2.110035
2253.206000,-2.117667
2256.206000,-2.121400
2259.204000,-2.136089
2262.204000,-2.141198
2265.204000,-2.147827
2268.204000,-2.157114
2271.204000,-2.161490
2274.205000,-2.170267
2277.203000,-2.178653
2280.203000,-2.184263
2283.203000,-2.190599
2286.203000,-2.196711
2289.203000,-2.199839
2292.202000,-2.205815
2295.203000,-2.207579
2298.203000,-2.216840
2301.201000,-2.220392
2304.201000,-2.219756
2307.201000,-2.226562
2310.201000,-2.226032
2313.202000,-2.227436
2316.200000,-2.229730
2319.200000,-2.227640
2322.200000,-2.236149
2325.200000,-2.228007
2328.200000,-2.237481
2331.199000,-2.236618
2334.199000,-2.236397
2337.199000,-2.242387
2340.199000,-2.234683
2343.199000,-2.234653
2346.199000,-2.233463
2349.197000,-2.236512
2352.198000,-2.233623
2355.198000,-2.227082
2358.198000,-2.227847
2361.198000,-2.225974
2364.196000,-2.219155
2367.196000,-2.218356
2370.197000,-2.215918
2373.197000,-2.219335
2376.197000,-2.209041
2379.195000,-2.206604
2382.196000,-2.193359
2385.196000,-2.191388
2388.194000,-2.191439
2391.195000,-2.185541
2394.195000,-2.178402
2397.195000,-2.167082
2400.195000,-2.171103
2403.193000,-2.160075
2406.193000,-2.150951
2409.194000,-2.145804
2412.194000,-2.137690
2415.194000,-2.126849
2418.192000,-2.125846
2421.192000,-2.111314
2424.192000,-2.106000
2427.192000,-2.099772
2430.193000,-2.089615
2433.193000,-2.081752
2436.191000,-2.076646
2439.191000,-2.062484
2442.191000,-2.061035
2445.191000,-2.048549
2448.192000,-2.046649
2451.190000,-2.028469
2454.190000,-2.022486
2457.190000,-2.011278
2460.190000,-2.004934
2463.190000,-1.995021
2466.188000,-1.985340
2469.189000,-1.977803
2472.189000,-1.966377
2475.189000,-1.954398
2478.189000,-1.948078
2481.187000,-1.939763
2484.187000,-1.931948
2487.188000,-1.930564
2490.188000,-1.914852
2493.188000,-1.903093
2496.188000,-1.896804
2499.186000,-1.887898
2502.186000,-1.880439
2505.186000,-1.870044
2508.187000,-1.862741
2511.187000,-1.854773
2514.185000,-1.850153
2517.185000,-1.841145
2520.185000,-1.830402
2523.185000,-1.826340
2526.186000,-1.815047
2529.184000,-1.813735
2532.184000,-1.796574
2535.184000,-1.802734
2538.184000,-1.787052
2541.184000,-1.782127
2544.184000,-1.770358
2547.183000,-1.764701
2550.183000,-1.767519
2553.183000,-1.755658
2556.183000,-1.756807
2559.183000,-1.735374
2562.181000,-1.739106
2565.182000,-1.731196
2568.182000,-1.721270
2571.182000,-1.720450
2574.182000,-1.704245
2577.180000,-1.706625
2580.180000,-1.692830
2583.180000,-1.695134
2586.181000,-1.679222
2589.181000,-1.675948
2592.181000,-1.676903
2595.179000,-1.671253
2598.179000,-1.666477
2601.179000,-1.663349
2604.180000,-1.650965
2607.180000,-1.649707
2610.178000,-1.656527
2613.178000,-1.641001
2616.178000,-1.640957
2619.178000,-1.642252
2622.179000,-1.629535
2625.177000,-1.625435
2628.177000,-1.629878
2631.177000,-1.618011
2634.177000,-1.617096
2637.177000,-1.621067
2640.177000,-1.617841
2643.176000,-1.618052
2646.176000,-1.616158
2649.176000,-1.614557
2652.176000,-1.613670
2655.176000,-1.611385
2658.174000,-1.603420
2661.175000,-1.608067
2664.175000,-1.611831
2667.175000,-1.604267
2670.175000,-1.604634
2673.173000,-1.615536
2676.173000,-1.600772
2679.173000,-1.613041
2682.174000,-1.605341
2685.174000,-1.602482
2688.174000,-1.610348
2691.172000,-1.611028
2694.172000,-1.613942
2697.172000,-1.620292
2700.173000,-1.620836
2703.173000,-1.624096
2706.171000,-1.627138
2709.171000,-1.627727
2712.171000,-1.637415
2715.171000,-1.627805
2718.171000,-1.639108
2721.171000,-1.645033
2724.171000,-1.647658
2727.171000,-1.652458
2730.169000,-1.658108
2733.169000,-1.657020
2736.169000,-1.657407
2739.170000,-1.666263
2742.170000,-1.671318
2745.168000,-1.673901
2748.168000,-1.677515
2751.168000,-1.684848
2754.168000,-1.692969
2757.168000,-1.699693
2760.167000,-1.693336
2763.167000,-1.702253
2766.167000,-1.711703
2769.167000,-1.718431
2772.167000,-1.718305
2775.167000,-1.727433
2778.166000,-1.731342
2781.166000,-1.730533
2784.166000,-1.741112
2787.166000,-1.751246
2790.166000,-1.759245
2793.164000,-1.762094
2796.164000,-1.765435
2799.165000,-1.773478
2802.165000,-1.776062
2805.165000,-1.784479
2808.163000,-1.790843
2811.163000,-1.792736
2814.163000,-1.797972
2817.164000,-1.808734
2820.164000,-1.815768
2823.164000,-1.820629
2826.162000,-1.827285
2829.162000,-1.832996
2832.162000,-1.838935
2835.162000,-1.843711
2838.163000,-1.846207
2841.161000,-1.853043
2844.161000,-1.860617
2847.161000,-1.865023
2850.161000,-1.870044
2853.161000,-1.879178
2856.160000,-1.882078
2859.160000,-1.889964
2862.160000,-1.893979
2865.160000,-1.903304
2868.160000,-1.910786
2871.158000,-1.917599
2874.158000,-1.918564
2877.159000,-1.925856
2880.159000,-1.928579
2883.159000,-1.935436
2886.158000,-1.940191
2889.158000,-1.945491
2892.158000,-1.947908
2895.159000,-1.954707
2898.157000,-1.960816
2901.157000,-1.966133
2904.157000,-1.971847
2907.156000,-1.976188
2910.156000,-1.980285
2913.156000,-1.983929
2916.157000,-1.988107
2919.157000,-1.994838
2922.155000,-1.998366
2925.155000,-1.999148
2928.155000,-2.010615
2931.155000,-2.011169
2934.156000,-2.016020
2937.154000,-2.017254
2940.154000,-2.026470
2943.154000,-2.025708
2946.154000,-2.029332
2949.154000,-2.028598
2952.152000,-2.035998
2955.153000,-2.039316
2958.153000,-2.034142
2961.153000,-2.038602
2964.153000,-2.044368
2967.151000,-2.037015
2970.151000,-2.050820
2973.152000,-2.055712
2976.152000,-2.056745
2979.152000,-2.055433
2982.152000,-2.044738
2985.150000,-2.059088
2988.150000,-2.051242
2991.151000,-2.055052
2994.151000,-2.049685
2997.151000,-2.063242
3000.149000,-2.047322
3003.149000,-2.055314
3006.149000,-2.053730
3009.149000,-2.046506
3012.150000,-2.046527
3015.148000,-2.054478
3018.148000,-2.054067
3021.148000,-2.050654
3024.148000,-2.046588
3027.148000,-2.042121
3030.149000,-2.045602
3033.147000,-2.037198
3036.147000,-2.042148
3039.147000,-2.030882
3042.147000,-2.027874
3045.147000,-2.035115
3048.145000,-2.024940
3051.146000,-2.019994
3054.146000,-2.018158
3057.146000,-2.024291
3060.146000,-2.011230
3063.144000,-2.007763
3066.144000,-2.008782
3069.145000,-2.005233
3072.145000,-1.992992
3075.145000,-1.986016
3078.143000,-1.985299
3081.143000,-1.984208
3084.143000,-1.977976
3087.143000,-1.979571
3090.144000,-1.969413
3093.144000,-1.963746
3096.142000,-1.965670
3099.142000,-1.950835
3102.142000,-1.946865
3105.142000,-1.943863
3108.143000,-1.935422
3111.141000,-1.931156
3114.141000,-1.934191
3117.141000,-1.923877
3120.141000,-1.921974
3123.141000,-1.916922
3126.139000,-1.908981
3129.140000,-1.910096
3132.140000,-1.898932
3135.140000,-1.896253
3138.140000,-1.889675
3141.140000,-1.880718
3144.138000,-1.878382
3147.139000,-1.872036
3150.139000,-1.864615
3153.139000,-1.858988
3156.139000,-1.861949
3159.137000,-1.861358
3162.137000,-1.846217
3165.137000,-1.846689
3168.138000,-1.832619
3171.138000,-1.829770
3174.136000,-1.833414
3177.136000,-1.817682
3180.136000,-1.811977
3183.136000,-1.808479
3186.137000,-1.808503
3189.135000,-1.799664
3192.135000,-1.792294
3195.135000,-1.803346
3198.135000,-1.785693
3201.135000,-1.781566
3204.135000,-1.782640
3207.134000,-1.771024
3210.134000,-1.765558
3213.134000,-1.764344
3216.134000,-1.771809
3219.134000,-1.764878
3222.132000,-1.756573
3225.133000,-1.761747
3228.133000,-1.740714
3231.133000,-1.740065
3234.133000,-1.743023
3237.133000,-1.730839
3240.131000,-1.730101
3243.131000,-1.728170
3246.132000,-1.729785
3249.132000,-1.726321
3252.132000,-1.713067
3255.130000,-1.721314
3258.130000,-1.711523
3261.130000,-1.704381
3264.131000,-1.702185
3267.131000,-1.701196
3270.129000,-1.710918
3273.129000,-1.702236
3276.129000,-1.707294
3279.129000,-1.697878
3282.129000,-1.689658
3285.130000,-1.697164
3288.128000,-1.692286
3291.128000,-1.690725
3294.128000,-1.692126
3297.128000,-1.680082
3300.128000,-1.692918
3303.127000,-1.680758
3306.127000,-1.692949
3309.127000,-1.690974
3312.127000,-1.676556
3315.127000,-1.687992
3318.125000,-1.674173
3321.125000,-1.680401
3324.126000,-1.683240
3327.126000,-1.679599
3330.126000,-1.688873
3333.124000,-1.680245
3336.124000,-1.680592
3339.124000,-1.674731
3342.125000,-1.686510
3345.125000,-1.678844
3348.125000,-1.690005
3351.123000,-1.681805
3354.123000,-1.691422
3357.123000,-1.696161
3360.124000,-1.683230
3363.124000,-1.699255
3366.122000,-1.698996
3369.122000,-1.698966
3372.122000,-1.693064
3375.122000,-1.697409
3378.122000,-1.697178
3381.121000,-1.701206
3384.121000,-1.706071
3387.121000,-1.704293
3390.121000,-1.715147
3393.121000,-1.718281
3396.121000,-1.720328
3399.121000,-1.721977
3402.120000,-1.714178
3405.120000,-1.724394
3408.120000,-1.730159
3411.120000,-1.726729
3414.118000,-1.732372
3417.118000,-1.732658
3420.119000,-1.740548
3423.119000,-1.741853
3426.119000,-1.741197
3429.117000,-1.747972
3432.117000,-1.752385
3435.117000,-1.758759
3438.118000,-1.758245
3441.118000,-1.763263
3444.116000,-1.762134
3447.116000,-1.768304
3450.116000,-1.768325
3453.116000,-1.774376
3456.116000,-1.780607
3459.117000,-1.780675
3462.115000,-1.784330
3465.115000,-1.784952
3468.115000,-1.785985
3471.115000,-1.790326
3474.115000,-1.792298
3477.114000,-1.795038
3480.114000,-1.803159
3483.114000,-1.806378
3486.114000,-1.808411
3489.114000,-1.813402
3492.114000,-1.814979
3495.112000,-1.817314
3498.113000,-1.822176
3501.113000,-1.825613
3504.113000,-1.828499
3507.113000,-1.834710
3510.111000,-1.835342
3513.111000,-1.840101
3516.112000,-1.839901
3519.112000,-1.844942
3522.112000,-1.848715
3525.112000,-1.852574
3528.110000,-1.851714
3531.110000,-1.860974
3534.110000,-1.861052
3537.111000,-1.863187
3540.109000,-1.866851
3543.109000,-1.870343
3546.109000,-1.874296
3549.109000,-1.871736
3552.109000,-1.877482
3555.110000,-1.877978
3558.108000,-1.881914
3561.108000,-1.886419
3564.108000,-1.883747
3567.108000,-1.891654
3570.108000,-1.892670
3573.106000,-1.897732
3576.107000,-1.895526
3579.107000,-1.902094
3582.107000,-1.902726
3585.107000,-1.901458
3588.105000,-1.903770
3591.105000,-1.903739
3594.106000,-1.906272
3597.106000,-1.906540
3600.106000,-1.907696
3603.106000,-1.908556
3606.104000,-1.912931
3609.104000,-1.913373
3612.103000,-1.913686
3615.104000,-1.913088
3618.104000,-1.915855
3621.104000,-1.918775
3624.104000,-1.922953
3627.104000,-1.923011
3630.102000,-1.921345
3633.103000,-1.920862
3636.103000,-1.920791
3639.103000,-1.919186
3642.103000,-1.923510
3645.101000,-1.923480
3648.101000,-1.919733
3651.101000,-1.922314
3654.102000,-1.918826
3657.102000,-1.923500
3660.100000,-1.919346
3663.100000,-1.922681
3666.100000,-1.920444
3669.100000,-1.919003
3672.101000,-1.920019
3675.099000,-1.919366
3678.099000,-1.914559
3681.099000,-1.919506
3684.099000,-1.912346
3687.099000,-1.916225
3690.099000,-1.911242
3693.098000,-1.912989
3696.098000,-1.906503
3699.098000,-1.908043
3702.098000,-1.907767
3705.098000,-1.906856
3708.096000,-1.903732
3711.097000,-1.903708
3714.097000,-1.903749
3717.097000,-1.902736
3720.097000,-1.903321
3723.095000,-1.903688
3726.095000,-1.898409
3729.096000,-1.899306
3732.096000,-1.897185
3735.096000,-1.892698
3738.096000,-1.893626
3741.094000,-1.885287
3744.094000,-1.891481
3747.094000,-1.884145
3750.095000,-1.882285
3753.095000,-1.879399
3756.093000,-1.876343
3759.093000,-1.871733
3762.093000,-1.871821
3765.093000,-1.868619
3768.094000,-1.863047
3771.092000,-1.860433
3774.092000,-1.865617
3777.092000,-1.859662
3780.092000,-1.853128
3783.092000,-1.854226
3786.090000,-1.853138
3789.091000,-1.855232
3792.091000,-1.843885
3795.091000,-1.850816
3798.091000,-1.845030
3801.091000,-1.843392
3804.089000,-1.845649
3807.090000,-1.832503
3810.090000,-1.835294
3813.090000,-1.832187
3816.090000,-1.826483
3819.088000,-1.825575
3822.088000,-1.826758
3825.088000,-1.821000
3828.089000,-1.816458
3831.089000,-1.818222
3834.089000,-1.817750
3837.087000,-1.813313
3840.087000,-1.814095
3843.087000,-1.805335
3846.088000,-1.805729
3849.088000,-1.801476
3852.086000,-1.797513
3855.086000,-1.799824
3858.086000,-1.792937
3861.086000,-1.790551
3864.086000,-1.781970
3867.085000,-1.782334
3870.085000,-1.787110
3873.085000,-1.779631
3876.085000,-1.783772
3879.085000,-1.773689
3882.085000,-1.780444
3885.084000,-1.772425
3888.084000,-1.779880
3891.084000,-1.765534
3894.084000,-1.764144
3897.083000,-1.763797
3900.083000,-1.769746
3903.083000,-1.764116
3906.082000,-1.754975
3909.082000,-1.760649
3912.082000,-1.756773
3915.082000,-1.748193
3918.082000,-1.755312
3921.082000,-1.749811
3924.081000,-1.751287
3927.081000,-1.754227
3930.081000,-1.748700
3933.080000,-1.744760
3936.080000,-1.750512
3939.080000,-1.740001
3942.080000,-1.750906
3945.081000,-1.743356
3948.079000,-1.740330
3951.079000,-1.745409
3954.079000,-1.736275
3957.078000,-1.739161
3960.078000,-1.739875
3963.079000,-1.737444
3966.079000,-1.732474
3969.079000,-1.730390
3972.077000,-1.729897
3975.077000,-1.729993
3978.077000,-1.742601
3981.077000,-1.728694
3984.078000,-1.741388
3987.076000,-1.732821
3990.076000,-1.733854
3993.076000,-1.738294
3996.075000,-1.736190
3999.075000,-1.736377
4002.076000,-1.739593
4005.076000,-1.738787
4008.076000,-1.729064
4011.074000,-1.747663
4014.074000,-1.746714
4017.074000,-1.747133
4020.073000,-1.738923
4023.074000,-1.746463
4026.074000,-1.749393
4029.074000,-1.738875
4032.074000,-1.744787
4035.072000,-1.738042
4038.072000,-1.754404
4041.073000,-1.748333
4044.073000,-1.750960
4047.073000,-1.743142
4050.071000,-1.760530
4053.071000,-1.747779
4056.071000,-1.753653
4059.071000,-1.760499
4062.072000,-1.755393
4065.072000,-1.754550
4068.070000,-1.764868
4071.070000,-1.764735
4074.069000,-1.760377
4077.069000,-1.763389
4080.070000,-1.770586
4083.070000,-1.773866
4086.070000,-1.765881
4089.068000,-1.778421
4092.068000,-1.781314
4095.068000,-1.769515
4098.069000,-1.777854
4101.069000,-1.783211
4104.069000,-1.784207
4107.067000,-1.780712
4110.067000,-1.784357
4113.067000,-1.784632
4116.067000,-1.788290
4119.068000,-1.787909
4122.066000,-1.793692
4125.066000,-1.794103
4128.066000,-1.795905
4131.066000,-1.798145
4134.066000,-1.802133
4137.065000,-1.803462
4140.065000,-1.806773
4143.065000,-1.810975
4146.065000,-1.811957
4149.065000,-1.812229
4152.065000,-1.817087
4155.063000,-1.816502
4158.064000,-1.819990
4161.064000,-1.814942
4164.064000,-1.822703
4167.064000,-1.822077
4170.062000,-1.824926
4173.062000,-1.829338
4176.063000,-1.830433
4179.063000,-1.830579
4182.063000,-1.833540
4185.061000,-1.838966
4188.061000,-1.837337
4191.061000,-1.838551
4194.061000,-1.841665
4197.062000,-1.841437
4200.062000,-1.842284
4203.060000,-1.844935
4206.060000,-1.851659
4209.060000,-1.847927
4212.060000,-1.851850
4215.061000,-1.854250
4218.059000,-1.856344
4221.059000,-1.859325
4224.059000,-1.858132
4227.059000,-1.857551
4230.059000,-1.862915
4233.057000,-1.860277
4236.058000,-1.862289
4239.058000,-1.862874
4242.058000,-1.863415
4245.058000,-1.864584
4248.058000,-1.864472
4251.057000,-1.867752
4254.058000,-1.866461
4257.056000,-1.872015
4260.056000,-1.872097
4263.056000,-1.868725
4266.056000,-1.874408
4269.056000,-1.873504
4272.054000,-1.874633
4275.055000,-1.873151
4278.055000,-1.872947
4281.055000,-1.874653
4284.055000,-1.875772
4287.055000,-1.876635
4290.053000,-1.878763
4293.054000,-1.874398
4296.054000,-1.876917
4299.054000,-1.876744
4302.054000,-1.878869
4305.052000,-1.875143
4308.052000,-1.878049
4311.052000,-1.874351
4314.053000,-1.875286
4317.053000,-1.876591
4320.051000,-1.872756
4323.051000,-1.872828
4326.051000,-1.872586
4329.051000,-1.872787
4332.052000,-1.873032
4335.052000,-1.868483
4338.050000,-1.870683
4341.050000,-1.868235
4344.050000,-1.869081
4347.050000,-1.865631
4350.050000,-1.867674
4353.049000,-1.864931
4356.049000,-1.863370
4359.049000,-1.862915
4362.049000,-1.863109
4365.049000,-1.863510
4368.047000,-1.863622
4371.048000,-1.861963
4374.048000,-1.860202
4377.048000,-1.859434
4380.048000,-1.855218
4383.046000,-1.856650
4386.046000,-1.856558
4389.046000,-1.853454
4392.047000,-1.850578
4395.047000,-1.849538
4398.047000,-1.848780
4401.045000,-1.847471
4404.045000,-1.848178
4407.045000,-1.841927
4410.046000,-1.840829
4413.046000,-1.843283
4416.044000,-1.840781
4419.045000,-1.839411
4422.045000,-1.841192
4425.043000,-1.839309
4428.044000,-1.829709
4431.044000,-1.832265
4434.044000,-1.829396
4437.044000,-1.823029
4440.042000,-1.829508
4443.042000,-1.825266
4446.042000,-1.820391
4449.043000,-1.819381
4452.043000,-1.818413
4455.043000,-1.818871
4458.042000,-1.817294
4461.042000,-1.812535
4464.040000,-1.817379
4467.041000,-1.804770
4470.041000,-1.801837
4473.041000,-1.801653
4476.041000,-1.803975
4479.041000,-1.795038
4482.039000,-1.792158
4485.039000,-1.791003
4488.040000,-1.793399
4491.040000,-1.790948
4494.040000,-1.782116
4497.038000,-1.787375
4500.038000,-1.778024
4503.038000,-1.783860
4506.039000,-1.776970
4509.039000,-1.772639
4512.037000,-1.780852
4515.037000,-1.771078
4518.037000,-1.768199
4521.037000,-1.767074
4524.037000,-1.776728
4527.036000,-1.773468
4530.036000,-1.765191
4533.036000,-1.772040
4536.036000,-1.764613
4539.036000,-1.760333
4542.036000,-1.758956
4545.035000,-1.768311
4548.035000,-1.747816
4551.035000,-1.743492
4554.035000,-1.745443
4557.035000,-1.753592
4560.033000,-1.755023
4563.033000,-1.748635
4566.034000,-1.756019
4569.034000,-1.740531
4572.034000,-1.749043
4575.032000,-1.742632
4578.032000,-1.737961
4581.032000,-1.740514
4584.033000,-1.732800
4587.033000,-1.743512
4590.033000,-1.734752
4593.031000,-1.730849
4596.031000,-1.730298
4599.031000,-1.729248
4602.031000,-1.727661
4605.032000,-1.727980
4608.030000,-1.732641
4611.030000,-1.735700
4614.030000,-1.721732
4617.030000,-1.733266
4620.030000,-1.723887
4623.029000,-1.727100
4626.029000,-1.718737
4629.029000,-1.714433
4632.029000,-1.730989
4635.029000,-1.728650
4638.027000,-1.720634
4641.027000,-1.724390
4644.028000,-1.731478
4647.028000,-1.720491
4650.028000,-1.730084
4653.028000,-1.721008
4656.026000,-1.723544
4659.026000,-1.718363
4662.027000,-1.728466
4665.027000,-1.718275
4668.027000,-1.727915
4671.025000,-1.720518
4674.025000,-1.734524
4677.025000,-1.732396
4680.025000,-1.723197
4683.026000,-1.723455
4686.025000,-1.731356
4689.025000,-1.722860
4692.025000,-1.738627
4695.023000,-1.728534
4698.023000,-1.739776
4701.024000,-1.727480
4704.024000,-1.737403
4707.023000,-1.737978
4710.023000,-1.730720
4713.023000,-1.726705
4716.023000,-1.741459
4719.021000,-1.735391
4722.022000,-1.741558
4725.022000,-1.738824
4728.022000,-1.733429
4731.022000,-1.743159
4734.020000,-1.735880
4737.020000,-1.743502
4740.021000,-1.731461
4743.021000,-1.751243
4746.021000,-1.753564
4749.021000,-1.757317
4752.019000,-1.742543
4755.019000,-1.751314
4758.019000,-1.741670
4761.020000,-1.754132
4764.020000,-1.747442
4767.018000,-1.761794
4770.018000,-1.754438
4773.018000,-1.766571
4776.018000,-1.767897
4779.019000,-1.750984
4782.017000,-1.768366
4785.017000,-1.764415
4788.017000,-1.759442
4791.017000,-1.778853
4794.017000,-1.779540
4797.017000,-1.780169
4800.016000,-1.780444
4803.016000,-1.781426
4806.016000,-1.780063
4809.016000,-1.776215
4812.016000,-1.779492
4815.014000,-1.783313
4818.015000,-1.785081
4821.015000,-1.782116
4824.015000,-1.786430
4827.015000,-1.785217
4830.013000,-1.783520
4833.013000,-1.790500
4836.014000,-1.791672
4839.014000,-1.800929
4842.013000,-1.796527
4845.013000,-1.800497
4848.013000,-1.798896
4851.013000,-1.801748
4854.011000,-1.803227
4857.012000,-1.805158
4860.012000,-1.809118
4863.012000,-1.809088
4866.012000,-1.812266
4869.010000,-1.811892
4872.010000,-1.813269
4875.011000,-1.816067
4878.011000,-1.817410
4881.011000,-1.815265
4884.011000,-1.818895
4887.010000,-1.820558
4890.010000,-1.821880
4893.008000,-1.822373
4896.009000,-1.822944
4899.009000,-1.825874
4902.009000,-1.823451
4905.009000,-1.825014
4908.009000,-1.827996
4911.007000,-1.834312
4914.008000,-1.831565
4917.008000,-1.836953
4920.008000,-1.832371
4923.008000,-1.836940
4926.006000,-1.838779
4929.006000,-1.836946
4932.006000,-1.840145
4935.007000,-1.840890
4938.007000,-1.841118
4941.005000,-1.839122
4944.005000,-1.842443
4947.005000,-1.841920
4950.005000,-1.842841
4953.006000,-1.845482
4956.006000,-1.843840
4959.004000,-1.841862
4962.004000,-1.842477
4965.004000,-1.844177
4968.004000,-1.845091
4971.004000,-1.844558
4974.003000,-1.846863
4977.003000,-1.846261
4980.003000,-1.844167
4983.003000,-1.848654
4986.003000,-1.850704
4989.001000,-1.852672
4992.002000,-1.846108
4995.002000,-1.851095
4998.002000,-1.849994
5001.002000,-1.849354
5004.000000,-1.849902
5007.000000,-1.849184
5010.000000,-1.848593
5013.001000,-1.847475
5016.001000,-1.844755
5019.001000,-1.846128
5021.999000,-1.847577
5024.999000,-1.843847
5027.999000,-1.846682
5031.000000,-1.842997
5034.000000,-1.842545
5036.998000,-1.842987
5039.998000,-1.843402
5042.998000,-1.842997
5045.998000,-1.842430
5048.998000,-1.840757
5051.999000,-1.833391
5054.997000,-1.837511
5057.997000,-1.837912
5060.997000,-1.836107
5063.997000,-1.832833
5066.997000,-1.833781
5069.996000,-1.822359
5072.997000,-1.822118
5075.997000,-1.826058
5078.995000,-1.822302
5081.995000,-1.820381
5084.995000,-1.823539
5087.995000,-1.825317
5090.996000,-1.814728
5093.994000,-1.813004
5096.994000,-1.818980
5099.994000,-1.816556
5102.994000,-1.813918
5105.994000,-1.817158
5108.993000,-1.809761
5111.993000,-1.809509
5114.993000,-1.805824
5117.993000,-1.801079
5120.993000,-1.796772
5123.991000,-1.801310
5126.991000,-1.794052
5129.992000,-1.791441
5132.992000,-1.789619
5135.992000,-1.788552
5138.992000,-1.794491
5141.990000,-1.781389
5144.990000,-1.792628
5147.991000,-1.781209
5150.991000,-1.779098
5153.991000,-1.783143
5156.989000,-1.773050
5159.989000,-1.773584
5162.989000,-1.777500
5165.989000,-1.770963
5168.990000,-1.771792
5171.988000,-1.766530
5174.988000,-1.771371
5177.988000,-1.772557
5180.988000,-1.768862
5183.988000,-1.769321
5186.989000,-1.768342
5189.987000,-1.764993
5192.987000,-1.768440
5195.987000,-1.757052
5198.986000,-1.760764
5201.986000,-1.768716
5204.986000,-1.751226
5207.987000,-1.751756
5210.985000,-1.766374
5213.985000,-1.748152
5216.985000,-1.758596
5219.985000,-1.752664
5222.985000,-1.755706
5225.986000,-1.751100
5228.984000,-1.744607
5231.984000,-1.758436
5234.984000,-1.741507
5237.984000,-1.740517
5240.984000,-1.737954
5243.983000,-1.747680
5246.983000,-1.747524
5249.983000,-1.744036
5252.983000,-1.735442
5255.983000,-1.747643
5258.981000,-1.737567
5261.981000,-1.738648
5264.982000,-1.739695
5267.982000,-1.740990
5270.982000,-1.726325
5273.982000,-1.740963
5276.980000,-1.730536
5279.980000,-1.737522
5282.981000,-1.728691
5285.981000,-1.731883
5288.981000,-1.738620
5291.979000,-1.726443
5294.979000,-1.740463
5297.979000,-1.728844
5300.979000,-1.737913
5303.980000,-1.728415
5306.978000,-1.736533
5309.978000,-1.734704
5312.978000,-1.725889
5315.978000,-1.740273
5318.978000,-1.730509
5321.979000,-1.723279
5324.977000,-1.739256
5327.977000,-1.728024
5330.977000,-1.720641
5333.977000,-1.733555
5336.977000,-1.739980
5339.975000,-1.728283
5342.976000,-1.735544
5345.976000,-1.729112
5348.976000,-1.737437
5351.975000,-1.740191
5354.975000,-1.724533
5357.975000,-1.726981
5360.976000,-1.740473
5363.974000,-1.727402
5366.974000,-1.737760
5369.974000,-1.734905
5372.974000,-1.733494
5375.974000,-1.738226
5378.972000,-1.746344
5381.973000,-1.735911
5384.973000,-1.740650
5387.973000,-1.734990
5390.973000,-1.740459
5393.973000,-1.738909
5396.971000,-1.735007
5399.972000,-1.748050
5402.972000,-1.735340
5405.972000,-1.751759
5408.972000,-1.754068
5411.970000,-1.740837
5414.970000,-1.753320
5417.970000,-1.745871
5420.971000,-1.760941
5423.971000,-1.747201
5426.969000,-1.756383
5429.969000,-1.752092
5432.969000,-1.761295
5435.969000,-1.762621
5438.970000,-1.763504
5441.970000,-1.760870
5444.968000,-1.754370
5447.968000,-1.770222
5450.968000,-1.754829
5453.968000,-1.770602
5456.968000,-1.766326
5459.967000,-1.766408
5462.967000,-1.778075
5465.967000,-1.765228
5468.967000,-1.781080
5471.967000,-1.765843
5474.965000,-1.780131
5477.966000,-1.767288
5480.966000,-1.775957
5483.966000,-1.772190
5486.966000,-1.780600
5489.964000,-1.781906
5492.964000,-1.776762
5495.964000,-1.788297
5498.965000,-1.791054
5501.965000,-1.783473
5504.965000,-1.792036
5507.963000,-1.785519
5510.963000,-1.787103
5513.963000,-1.797139
5516.964000,-1.787148
5519.964000,-1.794239
5522.962000,-1.797258
5525.963000,-1.794990
5528.963000,-1.793087
5531.961000,-1.793695
5534.961000,-1.797808
5537.962000,-1.797632
5540.962000,-1.807238
5543.962000,-1.801861
5546.960000,-1.797516
5549.960000,-1.807225
5552.960000,-1.800086
5555.961000,-1.809050
5558.961000,-1.798529
5561.959000,-1.806929
5564.959000,-1.802234
5567.959000,-1.815394
5570.959000,-1.815414
5573.959000,-1.804325
5576.958000,-1.819072
5579.958000,-1.807582
5582.958000,-1.814207
5585.958000,-1.822271
5588.958000,-1.809632
5591.958000,-1.822169
5594.957000,-1.811719
5597.957000,-1.813252
5600.957000,-1.822118
5603.957000,-1.821472
5606.957000,-1.811168
5609.955000,-1.821571
5612.956000,-1.822115
5615.956000,-1.823705
5618.956000,-1.816206
5621.956000,-1.821115
5624.954000,-1.813684
5627.954000,-1.819691
5630.954000,-1.819375
5633.955000,-1.814993
5636.955000,-1.817165
5639.955000,-1.810199
5642.953000,-1.816060
5645.953000,-1.818946
5648.954000,-1.810444
5651.953000,-1.813412
5654.953000,-1.818803
5657.953000,-1.808530
5660.952000,-1.815836
5663.952000,-1.807694
5666.952000,-1.819878
5669.952000,-1.806742
5672.953000,-1.808717
5675.951000,-1.807993
5678.951000,-1.805886
5681.951000,-1.810400
5684.951000,-1.808517
5687.951000,-1.796027
5690.950000,-1.803914
5693.950000,-1.800562
5696.950000,-1.804988
5699.950000,-1.803105
5702.950000,-1.795262
5705.948000,-1.800695
5708.948000,-1.790517
5711.949000,-1.797455
5714.949000,-1.783255
5717.949000,-1.794722
5720.947000,-1.789854
5723.947000,-1.796649
5726.947000,-1.784877
5729.948000,-1.781590
5732.948000,-1.781205
5735.948000,-1.780094
5738.946000,-1.782708
5741.946000,-1.782844
5744.946000,-1.782324
5747.946000,-1.779863
5750.947000,-1.773992
5753.945000,-1.779543
5756.945000,-1.779411
5759.945000,-1.773054
5762.945000,-1.779611
5765.945000,-1.775202
5768.944000,-1.766656
5771.944000,-1.765367
5774.944000,-1.773886
5777.944000,-1.767788
5780.944000,-1.765928
5783.944000,-1.767363
5786.942000,-1.772010
5789.943000,-1.761543
5792.943000,-1.771837
5795.943000,-1.763732
5798.943000,-1.766312
5801.941000,-1.753925
5804.941000,-1.755767
5807.942000,-1.760839
5810.942000,-1.765255
5813.942000,-1.759949
5816.940000,-1.755927
5819.940000,-1.754129
5822.940000,-1.761472
5825.940000,-1.755465
5828.941000,-1.749978
5831.939000,-1.754985
5834.939000,-1.752215
5837.939000,-1.750498
5840.939000,-1.761251
5843.939000,-1.752055
5846.940000,-1.753578
5849.938000,-1.745926
5852.938000,-1.757307
5855.938000,-1.748040
5858.938000,-1.752956
5861.938000,-1.750661
5864.936000,-1.754775
5867.937000,-1.740735
5870.937000,-1.758545
5873.937000,-1.746963
5876.937000,-1.742758
5879.937000,-1.749159
5882.935000,-1.751124
5885.936000,-1.752470
5888.936000,-1.752058
5891.936000,-1.743584
5894.936000,-1.755675
5897.934000,-1.745239
5900.934000,-1.757328
5903.934000,-1.741598
5906.935000,-1.755852
5909.935000,-1.742639
5912.933000,-1.751086
5915.933000,-1.751742
5918.933000,-1.750413
5921.933000,-1.745110
5924.934000,-1.746949
5927.932000,-1.744522
5930.932000,-1.749995
5933.932000,-1.754574
5936.932000,-1.746239
5939.932000,-1.752997
5942.932000,-1.754520
5945.931000,-1.746398
5948.931000,-1.755798
5951.931000,-1.746398
5954.931000,-1.757902
5957.931000,-1.747449
5960.929000,-1.752885
5963.930000,-1.755978
5966.930000,-1.757011
5969.930000,-1.755302
5972.930000,-1.755193
5975.928000,-1.766387
5978.928000,-1.757688
5981.929000,-1.761757
5984.929000,-1.768383
5987.929000,-1.759374
5990.929000,-1.765548
5993.927000,-1.759877
5996.927000,-1.770592
5999.927000,-1.756573
6002.928000,-1.766129
6005.928000,-1.768988
6008.926000,-1.755526
6011.926000,-1.766493
6014.926000,-1.767111
6017.926000,-1.773570
6020.927000,-1.768699
6023.925000,-1.776858
6026.925000,-1.770538
6029.925000,-1.779431
6032.925000,-1.766435
6035.925000,-1.778578
6038.923000,-1.777184
6041.924000,-1.772010
6044.924000,-1.773631
6047.924000,-1.771123
6050.924000,-1.781358
6053.924000,-1.781175
6056.922000,-1.771017
6059.923000,-1.782711
6062.923000,-1.774376
6065.923000,-1.781930
6068.923000,-1.777945
6071.921000,-1.778914
6074.921000,-1.780203
6077.921000,-1.780267
6080.922000,-1.788616
6083.922000,-1.784530
6086.920000,-1.781997
6089.920000,-1.781270
6092.920000,-1.784955
6095.920000,-1.788106
6098.921000,-1.790241
6101.921000,-1.791074
6104.919000,-1.789816
6107.919000,-1.794355
6110.919000,-1.784333
6113.919000,-1.796625
6116.919000,-1.788919
6119.918000,-1.784625
6122.918000,-1.792651
6125.918000,-1.792577
6128.918000,-1.792447
6131.918000,-1.790704
6134.916000,-1.794365
6137.917000,-1.798563
6140.917000,-1.803591
6143.917000,-1.794548
6146.917000,-1.798142
6149.917000,-1.807946
6152.915000,-1.806538
6155.915000,-1.807463
6158.916000,-1.795391
6161.916000,-1.806423
6164.916000,-1.807585
6167.914000,-1.812066
6170.914000,-1.799981
6173.914000,-1.805059
6176.915000,-1.812127
6179.915000,-1.812803
6182.913000,-1.803214
6185.913000,-1.803261
6188.913000,-1.812746
6191.913000,-1.804138
6194.913000,-1.815720
6197.912000,-1.811726
6200.912000,-1.818334
6203.912000,-1.806797
6206.912000,-1.815309
6209.912000,-1.807184
6212.912000,-1.816220
6215.911000,-1.807908
6218.911000,-1.819269
6221.912000,-1.813086
6224.910000,-1.815703
6227.910000,-1.811695
6230.910000,-1.811739
6233.910000,-1.819993
6236.911000,-1.822601
6239.909000,-1.819867
6242.909000,-1.816536
6245.909000,-1.816267
6248.909000,-1.814965
6251.909000,-1.815462
6254.908000,-1.824691
6257.908000,-1.814037
6260.908000,-1.822451
6263.908000,-1.821934
6266.908000,-1.811841
6269.908000,-1.821972
6272.906000,-1.815622
6275.907000,-1.821917
6278.907000,-1.819837
6281.907000,-1.818266
6284.907000,-1.821822
6287.905000,-1.823094
6290.905000,-1.811991
6293.906000,-1.820241
6296.906000,-1.812018
6299.906000,-1.822132
6302.904000,-1.814925
6305.904000,-1.823029
6308.904000,-1.816638
6311.904000,-1.810454
6314.905000,-1.820391
6317.903000,-1.822570
6320.903000,-1.823784
6323.903000,-1.810635
6326.903000,-1.806997
6329.903000,-1.806089
6332.904000,-1.813867
6335.902000,-1.814116
6338.902000,-1.808826
6341.902000,-1.810006
6344.902000,-1.815724
6347.902000,-1.805770
6350.901000,-1.816281
6353.901000,-1.804570
6356.902000,-1.810869
6359.900000,-1.807983
6362.900000,-1.806385
6365.900000,-1.805658
6368.900000,-1.816992
6371.901000,-1.810057
6374.899000,-1.804631
6377.899000,-1.807211
6380.899000,-1.806521
6383.899000,-1.797982
6386.899000,-1.806004
6389.898000,-1.798590
6392.898000,-1.802391
6395.898000,-1.791761
6398.898000,-1.797139
6401.898000,-1.802068
6404.896000,-1.800915
6407.896000,-1.791346
6410.897000,-1.797479
6413.897000,-1.788487
6416.897000,-1.798176
6419.897000,-1.787352
6422.895000,-1.787702
6425.895000,-1.792798
6428.896000,-1.793559
6431.896000,-1.783928
6434.896000,-1.782589
6437.894000,-1.790054
6440.894000,-1.779846
6443.894000,-1.784064
6446.894000,-1.784425
6449.895000,-1.775287
6452.893000,-1.782422
6455.893000,-1.777534
6458.893000,-1.778533
6461.893000,-1.774930
6464.893000,-1.784088
6467.894000,-1.772459
6470.892000,-1.781413
6473.892000,-1.773669
6476.892000,-1.765463
6479.892000,-1.766306
6482.892000,-1.774053
6485.890000,-1.761070
6488.891000,-1.765568
6491.891000,-1.770579
6494.891000,-1.761359
6497.891000,-1.771952
6500.889000,-1.761512
6503.889000,-1.768053
6506.890000,-1.756994
6509.890000,-1.765432
6512.890000,-1.755706
6515.890000,-1.768570
6518.888000,-1.754499
6521.888000,-1.766649
6524.888000,-1.757351
6527.889000,-1.770246
6530.889000,-1.754316
6533.887000,-1.756403
6536.887000,-1.758181
6539.887000,-1.762182
6542.887000,-1.753381
6545.888000,-1.751970
6548.886000,-1.753728
6551.886000,-1.751892
6554.886000,-1.749927
6557.886000,-1.747707
6560.886000,-1.752517
6563.886000,-1.754438
6566.885000,-1.758228
6569.885000,-1.752670
6572.885000,-1.754734
6575.885000,-1.747197
6578.885000,-1.750308
6581.883000,-1.751147
6584.884000,-1.754846
6587.884000,-1.746827
6590.884000,-1.742101
6593.884000,-1.756522
6596.882000,-1.751610
6599.882000,-1.742350
6602.883000,-1.754170
6605.883000,-1.754537
6608.883000,-1.747187
6611.883000,-1.744461
6614.881000,-1.753065
6617.881000,-1.742999
6620.880000,-1.754693
6623.881000,-1.745440
6626.881000,-1.755856
6629.881000,-1.755618
6632.881000,-1.750287
6635.879000,-1.756733
6638.879000,-1.758946
6641.879000,-1.757957
6644.880000,-1.761716
6647.880000,-1.756631
6650.880000,-1.753748
6653.878000,-1.757984
6656.878000,-1.771017
6659.878000,-1.767261
6662.879000,-1.770552
6665.879000,-1.763134
6668.877000,-1.760567
6671.877000,-1.763902
6674.877000,-1.764500
6677.877000,-1.764630
6680.877000,-1.768423
6683.876000,-1.766129
6686.876000,-1.767829
6689.876000,-1.766815
6692.876000,-1.771262
6695.876000,-1.773206
6698.876000,-1.770184
6701.875000,-1.770290
6704.875000,-1.776898
6707.875000,-1.769498
6710.875000,-1.776487
6713.875000,-1.768519
6716.873000,-1.774491
6719.874000,-1.774172
6722.874000,-1.780974
6725.874000,-1.771837
6728.874000,-1.783092
6731.872000,-1.785377
6734.872000,-1.781117
6737.872000,-1.779132
6740.873000,-1.777619
6743.872000,-1.785387
6746.872000,-1.783361
6749.872000,-1.791234
6752.872000,-1.787151
6755.870000,-1.783364
6758.871000,-1.790799
6761.871000,-1.784544
6764.871000,-1.788518
6767.871000,-1.793284
6770.869000,-1.788871
6773.869000,-1.788276
6776.869000,-1.797999
6779.870000,-1.789928
6782.870000,-1.797020
6785.870000,-1.792101
6788.868000,-1.796819
6791.868000,-1.788664
6794.868000,-1.797553
6797.869000,-1.800552
6800.869000,-1.807021
6803.867000,-1.795347
6806.867000,-1.798828
6809.867000,-1.809676
6812.867000,-1.800028
6815.867000,-1.801602
6818.866000,-1.806691
6821.866000,-1.809441
6824.866000,-1.800831
6827.866000,-1.809336
6830.866000,-1.812644
6833.866000,-1.807765
6836.865000,-1.811202
6839.865000,-1.810346
6842.865000,-1.806086
6845.865000,-1.812674
6848.864000,-1.816427
6851.864000,-1.805886
6854.864000,-1.812531
6857.865000,-1.807378
6860.863000,-1.813548
6863.863000,-1.812249
6866.863000,-1.817726
6869.863000,-1.812875
6872.863000,-1.819351
6875.862000,-1.812297
6878.862000,-1.811729
6881.862000,-1.821268
6884.862000,-1.811794
6887.861000,-1.816913
6890.861000,-1.818389
6893.861000,-1.814255
6896.862000,-1.822176
6899.860000,-1.820476
6902.860000,-1.812243
6905.860000,-1.811824
6908.860000,-1.821992
6911.860000,-1.814697
6914.859000,-1.807133
6917.859000,-1.821771
6920.859000,-1.811695
6923.859000,-1.812307
6926.859000,-1.819704
6929.859000,-1.808537
6932.857000,-1.815278
6935.858000,-1.818457
6938.858000,-1.808795
6941.858000,-1.805892
6944.858000,-1.815883
6947.856000,-1.803764
6950.856000,-1.801657
6953.857000,-1.802340
6956.857000,-1.809384
6959.857000,-1.808656
6962.855000,-1.801674
6965.855000,-1.811770
6968.855000,-1.802540
6971.855000,-1.798148
6974.856000,-1.805916
6977.856000,-1.800610
6980.854000,-1.796568
6983.854000,-1.809030
6986.854000,-1.792519
6989.854000,-1.801096
6992.855000,-1.793573
6995.853000,-1.797326
6998.853000,-1.796874
7001.853000,-1.795391
7004.853000,-1.789646
7007.853000,-1.794103
7010.851000,-1.783993
7013.852000,-1.783918
7016.852000,-1.786638
7019.852000,-1.784353
7022.852000,-1.782626
7025.850000,-1.781960
7028.850000,-1.787035
7031.851000,-1.775372
7034.851000,-1.780512
7037.851000,-1.783378
7040.851000,-1.771425
7043.849000,-1.773101
7046.849000,-1.777534
7049.849000,-1.769199
7052.850000,-1.771014
7055.850000,-1.766741
7058.848000,-1.766727
7061.848000,-1.773458
7064.848000,-1.760567
7067.848000,-1.770640
7070.849000,-1.759847
7073.847000,-1.763804
7076.847000,-1.759150
7079.847000,-1.761608
7082.847000,-1.751151
7085.847000,-1.756240
7088.848000,-1.753789
7091.846000,-1.753942
7094.846000,-1.761410
7097.846000,-1.748112
7100.846000,-1.757783
7103.846000,-1.745878
7106.844000,-1.752599
7109.845000,-1.745501
7112.845000,-1.747466
7115.845000,-1.739249
7118.845000,-1.738943
7121.843000,-1.740259
7124.843000,-1.741894
7127.844000,-1.738750
7130.844000,-1.734585
7133.844000,-1.738505
7136.844000,-1.738926
7139.842000,-1.735211
7142.842000,-1.730105
7145.842000,-1.724094
7148.843000,-1.739358
7151.843000,-1.722126
7154.841000,-1.731118
7157.841000,-1.727511
7160.841000,-1.727858
7163.841000,-1.724050
7166.842000,-1.725563
7169.840000,-1.726053
7172.840000,-1.728096
7175.840000,-1.722337
7178.840000,-1.720120
7181.840000,-1.729163
7184.840000,-1.714889
7187.839000,-1.713339
7190.839000,-1.722864
7193.839000,-1.722024
7196.839000,-1.718156
7199.839000,-1.722966
7202.837000,-1.722752
7205.838000,-1.711625
