Time(s),Position(V)
0.337000,1.483416
3.355000,1.471695
6.353000,1.477712
9.353000,1.484089
12.353000,1.498285
15.353000,1.479510
18.353000,1.472031
21.352000,1.471284
24.352000,1.471301
27.352000,1.491323
30.352000,1.474156
33.352000,1.481801
36.350000,1.490813
39.350000,1.480673
42.351000,1.472171
45.351000,1.466636
48.351000,1.461867
51.350000,1.463502
54.350000,1.485714
57.350000,1.445631
60.349000,1.433947
63.349000,1.481849
66.349000,1.486734
69.349000,1.475495
72.349000,1.459035
75.349000,1.480646
78.347000,1.477885
81.348000,1.454443
84.348000,1.462785
87.348000,1.464678
90.348000,1.451444
93.346000,1.451482
96.346000,1.458882
99.347000,1.450295
102.347000,1.446739
105.347000,1.441392
108.345000,1.457577
111.345000,1.449534
114.345000,1.434637
117.345000,1.434138
120.346000,1.422338
123.346000,1.419958
126.344000,1.404980
129.344000,1.415923
132.343000,1.406599
135.343000,1.405439
138.344000,1.384335
141.344000,1.368511
144.344000,1.352163
147.344000,1.336237
150.342000,1.313892
153.342000,1.288134
156.342000,1.259946
159.343000,1.231448
162.343000,1.197800
165.341000,1.165390
168.341000,1.132864
171.341000,1.094399
174.341000,1.055169
177.342000,1.012781
180.340000,0.969068
183.340000,0.923708
186.340000,0.877064
189.340000,0.828129
192.340000,0.775291
195.338000,0.725251
198.339000,0.673556
201.339000,0.614612
204.339000,0.556356
207.339000,0.497970
210.339000,0.438473
213.337000,0.377174
216.338000,0.311771
219.338000,0.247773
222.338000,0.181535
225.338000,0.114582
228.336000,0.046029
231.336000,-0.020842
234.336000,-0.089657
237.337000,-0.159611
240.337000,-0.232928
243.335000,-0.308674
246.335000,-0.380260
249.335000,-0.454389
252.335000,-0.529945
255.336000,-0.607963
258.336000,-0.683203
261.334000,-0.758613
264.334000,-0.833711
267.334000,-0.911351
270.334000,-0.986979
273.334000,-1.064783
276.333000,-1.142368
279.333000,-1.220169
282.333000,-1.299747
285.333000,-1.380858
288.333000,-1.460368
291.331000,-1.542737
294.332000,-1.622580
297.332000,-1.697854
300.332000,-1.770616
303.332000,-1.840597
306.331000,-1.910395
309.331000,-1.984905
312.331000,-2.063520
315.331000,-2.147290
318.331000,-2.229190
321.331000,-2.307092
324.330000,-2.377570
327.330000,-2.441102
330.328000,-2.499620
333.329000,-2.564475
336.329000,-2.630574
339.329000,-2.709337
342.329000,-2.788272
345.329000,-2.858821
348.327000,-2.921035
351.327000,-2.973308
354.328000,-3.025864
357.328000,-3.077852
360.328000,-3.137754
363.326000,-3.203214
366.326000,-3.273579
369.326000,-3.336887
372.327000,-3.389671
375.326000,-3.432198
378.326000,-3.472621
381.326000,-3.510233
384.326000,-3.555024
387.324000,-3.598085
390.325000,-3.650202
393.325000,-3.703002
396.325000,-3.752754
399.325000,-3.794468
402.323000,-3.825839
405.323000,-3.855098
408.323000,-3.880825
411.324000,-3.903139
414.324000,-3.923702
417.324000,-3.945299
420.322000,-3.967538
423.322000,-3.987786
426.322000,-4.009508
429.323000,-4.027875
432.323000,-4.051471
435.321000,-4.064532
438.321000,-4.081709
441.321000,-4.095494
444.321000,-4.109004
447.320000,-4.116676
450.321000,-4.118012
453.321000,-4.120045
456.321000,-4.107226
459.319000,-4.107161
462.320000,-4.096925
465.318000,-4.090306
468.319000,-4.082002
471.319000,-4.069451
474.319000,-4.055788
477.319000,-4.038403
480.319000,-4.022409
483.317000,-4.002475
486.317000,-3.979409
489.318000,-3.956755
492.318000,-3.928730
495.318000,-3.910815
498.316000,-3.900984
501.316000,-3.867972
504.316000,-3.849954
507.317000,-3.821769
510.317000,-3.807145
513.315000,-3.773925
516.315000,-3.737878
519.315000,-3.698301
522.315000,-3.647030
525.315000,-3.600781
528.316000,-3.556268
531.314000,-3.511541
534.314000,-3.472325
537.314000,-3.436237
540.314000,-3.403772
543.314000,-3.363695
546.313000,-3.323517
549.313000,-3.269894
552.313000,-3.211457
555.313000,-3.146823
558.313000,-3.089913
561.311000,-3.036521
564.311000,-2.988888
567.312000,-2.946480
570.312000,-2.903374
573.312000,-2.851332
576.310000,-2.794428
579.310000,-2.731936
582.310000,-2.665497
585.311000,-2.599585
588.311000,-2.543820
591.311000,-2.488773
594.309000,-2.436730
597.309000,-2.386748
600.309000,-2.335845
603.309000,-2.278302
606.310000,-2.212560
609.308000,-2.153742
612.308000,-2.086497
615.308000,-2.021432
618.308000,-1.957009
621.308000,-1.897290
624.307000,-1.839550
627.307000,-1.785016
630.307000,-1.731074
633.307000,-1.682737
636.307000,-1.629331
639.306000,-1.576660
642.306000,-1.511159
645.307000,-1.449653
648.305000,-1.397423
651.305000,-1.338361
654.305000,-1.281155
657.305000,-1.222324
660.305000,-1.169755
663.304000,-1.120486
666.304000,-1.066013
669.304000,-1.019638
672.304000,-0.971464
675.304000,-0.925639
678.304000,-0.879090
681.302000,-0.832477
684.303000,-0.789164
687.303000,-0.742180
690.303000,-0.700976
693.303000,-0.657663
696.301000,-0.630603
699.301000,-0.572129
702.302000,-0.534419
705.302000,-0.490729
708.302000,-0.455048
711.302000,-0.423338
714.300000,-0.387209
717.300000,-0.356216
720.300000,-0.322415
723.301000,-0.294900
726.301000,-0.263077
729.299000,-0.233081
732.299000,-0.211378
735.299000,-0.189282
738.299000,-0.164136
741.300000,-0.143447
744.298000,-0.121235
747.298000,-0.112196
750.298000,-0.089746
753.298000,-0.068771
756.298000,-0.075771
759.299000,-0.053052
762.297000,-0.040909
765.297000,-0.022871
768.297000,-0.038954
771.297000,-0.013662
774.297000,-0.016001
777.295000,-0.007129
780.296000,-0.025921
783.296000,-0.017677
786.296000,-0.016824
789.296000,-0.016416
792.294000,-0.030779
795.294000,-0.036775
798.295000,-0.047266
801.295000,-0.057233
804.295000,-0.068417
807.293000,-0.082552
810.293000,-0.097510
813.293000,-0.110064
816.293000,-0.128646
819.294000,-0.143161
822.294000,-0.155882
825.292000,-0.176469
828.292000,-0.199025
831.292000,-0.219105
834.292000,-0.242449
837.293000,-0.268775
840.291000,-0.294798
843.291000,-0.317683
846.291000,-0.346065
849.291000,-0.379094
852.291000,-0.406657
855.289000,-0.439441
858.290000,-0.470060
861.290000,-0.502784
864.290000,-0.537169
867.290000,-0.573033
870.290000,-0.608816
873.288000,-0.646000
876.289000,-0.684386
879.289000,-0.724697
882.289000,-0.763012
885.289000,-0.800073
888.287000,-0.838994
891.288000,-0.880569
894.286000,-0.922722
897.287000,-0.963322
900.287000,-1.007002
903.287000,-1.049920
906.287000,-1.091173
909.287000,-1.134461
912.285000,-1.178399
915.286000,-1.222446
918.286000,-1.269746
921.286000,-1.317519
924.286000,-1.365030
927.284000,-1.410804
930.284000,-1.454283
933.284000,-1.505995
936.285000,-1.556668
939.285000,-1.603512
942.283000,-1.648028
945.283000,-1.694291
948.283000,-1.740211
951.283000,-1.782660
954.284000,-1.824096
957.284000,-1.866274
960.282000,-1.910218
963.282000,-1.954034
966.282000,-1.998013
969.282000,-2.045038
972.282000,-2.091848
975.281000,-2.139723
978.281000,-2.189834
981.281000,-2.237668
984.281000,-2.283132
987.281000,-2.327642
990.279000,-2.366378
993.280000,-2.403966
996.280000,-2.437312
999.280000,-2.471809
1002.280000,-2.505495
1005.280000,-2.539775
1008.278000,-2.574470
1011.278000,-2.610562
1014.279000,-2.649084
1017.279000,-2.691071
1020.279000,-2.732449
1023.277000,-2.769436
1026.277000,-2.807057
1029.277000,-2.840671
1032.278000,-2.874646
1035.278000,-2.900750
1038.276000,-2.925794
1041.276000,-2.947880
1044.276000,-2.969127
1047.276000,-2.991607
1050.276000,-3.012857
1053.275000,-3.033822
1056.275000,-3.049344
1059.275000,-3.069724
1062.275000,-3.088271
1065.275000,-3.104633
1068.275000,-3.124482
1071.274000,-3.143271
1074.274000,-3.161033
1077.274000,-3.175790
1080.274000,-3.191163
1083.274000,-3.204788
1086.272000,-3.216563
1089.273000,-3.231541
1092.273000,-3.244102
1095.273000,-3.248950
1098.273000,-3.257792
1101.271000,-3.262143
1104.271000,-3.260165
1107.271000,-3.268296
1110.272000,-3.270156
1113.272000,-3.271142
1116.272000,-3.265339
1119.270000,-3.248634
1122.270000,-3.246336
1125.270000,-3.228054
1128.271000,-3.229801
1131.271000,-3.221897
1134.269000,-3.209122
1137.269000,-3.196170
1140.269000,-3.184605
1143.268000,-3.168199
1146.268000,-3.151477
1149.269000,-3.131261
1152.269000,-3.113233
1155.269000,-3.092942
1158.267000,-3.081472
1161.267000,-3.060548
1164.267000,-3.044234
1167.267000,-3.026853
1170.267000,-3.009142
1173.267000,-2.994089
1176.267000,-2.970653
1179.267000,-2.957691
1182.265000,-2.938804
1185.265000,-2.912533
1188.266000,-2.889647
1191.266000,-2.867877
1194.266000,-2.838163
1197.264000,-2.811878
1200.264000,-2.784196
1203.264000,-2.750018
1206.265000,-2.715653
1209.265000,-2.675440
1212.263000,-2.643669
1215.263000,-2.604956
1218.263000,-2.571533
1221.262000,-2.538354
1224.262000,-2.509401
1227.263000,-2.482572
1230.263000,-2.453867
1233.263000,-2.424084
1236.261000,-2.391592
1239.261000,-2.360297
1242.261000,-2.328471
1245.262000,-2.296747
1248.262000,-2.262450
1251.262000,-2.223465
1254.260000,-2.181869
1257.260000,-2.143880
1260.260000,-2.101346
1263.260000,-2.062728
1266.261000,-2.024729
1269.259000,-1.989232
1272.259000,-1.944852
1275.259000,-1.908981
1278.259000,-1.876105
1281.259000,-1.837178
1284.258000,-1.808187
1287.258000,-1.775535
1290.258000,-1.741891
1293.258000,-1.710490
1296.258000,-1.681985
1299.258000,-1.649779
1302.256000,-1.616206
1305.257000,-1.587484
1308.257000,-1.544035
1311.257000,-1.511900
1314.257000,-1.472018
1317.255000,-1.447249
1320.255000,-1.413911
1323.256000,-1.375799
1326.256000,-1.341917
1329.256000,-1.308877
1332.254000,-1.289045
1335.254000,-1.250172
1338.255000,-1.220250
1341.253000,-1.202151
1344.254000,-1.169374
1347.254000,-1.139951
1350.254000,-1.120554
1353.254000,-1.088116
1356.252000,-1.066496
1359.252000,-1.045202
1362.253000,-1.027467
1365.253000,-1.001658
1368.252000,-0.976893
1371.252000,-0.968673
1374.252000,-0.942038
1377.252000,-0.924177
1380.250000,-0.906908
1383.251000,-0.899800
1386.251000,-0.873434
1389.251000,-0.870136
1392.251000,-0.847061
1395.249000,-0.836570
1398.249000,-0.831648
1401.250000,-0.806865
1404.250000,-0.800566
1407.250000,-0.794508
1410.250000,-0.785928
1413.248000,-0.777372
1416.248000,-0.764549
1419.248000,-0.766007
1422.249000,-0.751155
1425.249000,-0.754215
1428.247000,-0.759861
1431.247000,-0.738332
1434.247000,-0.732910
1437.247000,-0.743309
1440.248000,-0.751570
1443.246000,-0.758328
1446.246000,-0.753800
1449.246000,-0.759790
1452.246000,-0.761486
1455.246000,-0.766640
1458.246000,-0.774513
1461.245000,-0.781043
1464.245000,-0.788063
1467.245000,-0.794175
1470.245000,-0.800961
1473.245000,-0.809483
1476.243000,-0.824359
1479.244000,-0.827827
1482.244000,-0.845235
1485.243000,-0.858581
1488.243000,-0.871884
1491.243000,-0.885607
1494.243000,-0.902958
1497.244000,-0.921016
1500.242000,-0.932027
1503.242000,-0.949813
1506.242000,-0.967796
1509.242000,-0.984970
1512.242000,-1.002287
1515.240000,-1.026141
1518.241000,-1.043821
1521.241000,-1.061448
1524.241000,-1.082286
1527.241000,-1.106518
1530.239000,-1.127044
1533.239000,-1.148226
1536.240000,-1.169102
1539.240000,-1.195206
1542.240000,-1.220580
1545.240000,-1.245274
1548.238000,-1.270120
1551.238000,-1.297785
1554.238000,-1.322621
1557.239000,-1.350674
1560.239000,-1.375667
1563.237000,-1.405429
1566.237000,-1.431231
1569.237000,-1.456139
1572.237000,-1.487081
1575.238000,-1.519800
1578.236000,-1.548169
1581.236000,-1.575259
1584.236000,-1.606007
1587.235000,-1.630531
1590.235000,-1.658057
1593.235000,-1.685222
1596.236000,-1.714161
1599.236000,-1.739882
1602.234000,-1.767489
1605.234000,-1.790496
1608.234000,-1.815112
1611.234000,-1.842661
1614.235000,-1.865791
1617.233000,-1.893687
1620.233000,-1.919951
1623.233000,-1.944471
1626.233000,-1.971392
1629.233000,-1.998720
1632.233000,-2.023403
1635.232000,-2.050772
1638.232000,-2.077411
1641.232000,-2.107010
1644.232000,-2.134780
1647.232000,-2.161388
1650.230000,-2.188485
1653.231000,-2.216194
1656.231000,-2.239528
1659.231000,-2.265245
1662.231000,-2.290169
1665.229000,-2.313942
1668.229000,-2.334281
1671.229000,-2.354525
1674.230000,-2.372130
1677.230000,-2.391660
1680.230000,-2.408828
1683.229000,-2.426127
1686.229000,-2.438444
1689.227000,-2.457416
1692.228000,-2.469396
1695.228000,-2.484619
1698.228000,-2.499461
1701.228000,-2.510461
1704.228000,-2.525137
1707.226000,-2.539010
1710.226000,-2.551530
1713.227000,-2.559713
1716.227000,-2.572168
1719.227000,-2.585158
1722.225000,-2.595822
1725.225000,-2.603572
1728.225000,-2.613591
1731.226000,-2.622626
1734.226000,-2.630887
1737.224000,-2.638750
1740.224000,-2.647480
1743.224000,-2.654908
1746.224000,-2.659653
1749.224000,-2.659847
1752.225000,-2.666180
1755.223000,-2.672282
1758.223000,-2.675322
1761.223000,-2.662251
1764.223000,-2.658379
1767.223000,-2.664797
1770.222000,-2.673363
1773.222000,-2.670025
1776.222000,-2.651617
1779.222000,-2.651875
1782.222000,-2.660479
1785.220000,-2.641218
1788.220000,-2.627872
1791.221000,-2.619560
1794.221000,-2.616864
1797.221000,-2.604840
1800.221000,-2.597355
1803.219000,-2.603124
1806.220000,-2.600642
1809.219000,-2.587116
1812.219000,-2.584671
1815.219000,-2.558281
1818.219000,-2.548069
1821.219000,-2.535138
1824.217000,-2.532745
1827.217000,-2.508228
1830.218000,-2.504890
1833.218000,-2.486281
1836.218000,-2.482582
1839.218000,-2.468634
1842.216000,-2.451759
1845.216000,-2.442707
1848.217000,-2.429367
1851.217000,-2.411139
1854.217000,-2.390844
1857.215000,-2.373698
1860.215000,-2.364601
1863.215000,-2.346237
1866.216000,-2.336133
1869.216000,-2.311640
1872.214000,-2.293256
1875.215000,-2.274087
1878.215000,-2.259319
1881.213000,-2.232222
1884.213000,-2.207267
1887.214000,-2.187846
1890.214000,-2.171977
1893.214000,-2.145753
1896.212000,-2.126288
1899.212000,-2.095730
1902.212000,-2.073070
1905.213000,-2.051578
1908.212000,-2.028951
1911.212000,-2.008130
1914.212000,-1.981729
1917.212000,-1.964518
1920.210000,-1.937519
1923.210000,-1.914311
1926.211000,-1.908916
1929.211000,-1.873038
1932.211000,-1.851557
1935.211000,-1.832486
1938.209000,-1.811484
1941.209000,-1.788161
1944.210000,-1.784581
1947.210000,-1.763477
1950.210000,-1.739994
1953.208000,-1.725811
1956.208000,-1.707638
1959.208000,-1.688747
1962.208000,-1.665219
1965.209000,-1.651574
1968.207000,-1.636705
1971.207000,-1.611654
1974.207000,-1.591764
1977.207000,-1.570908
1980.207000,-1.549304
1983.206000,-1.537559
1986.206000,-1.513433
1989.206000,-1.496303
1992.206000,-1.478769
1995.206000,-1.466045
1998.206000,-1.450016
2001.204000,-1.442585
2004.205000,-1.417395
2007.205000,-1.393776
2010.205000,-1.388313
2013.205000,-1.368144
2016.203000,-1.358935
2019.203000,-1.347869
2022.204000,-1.330665
2025.204000,-1.312556
2028.204000,-1.301881
2031.202000,-1.295008
2034.202000,-1.284055
2037.202000,-1.268064
2040.202000,-1.255870
2043.203000,-1.250791
2046.203000,-1.261615
2049.201000,-1.232991
2052.201000,-1.226301
2055.201000,-1.219798
2058.201000,-1.214525
2061.202000,-1.208185
2064.200000,-1.198232
2067.200000,-1.189376
2070.201000,-1.187778
2073.199000,-1.196821
2076.199000,-1.202736
2079.199000,-1.175088
2082.200000,-1.182081
2085.200000,-1.193870
2088.198000,-1.183363
2091.198000,-1.168670
2094.198000,-1.168456
2097.198000,-1.173762
2100.199000,-1.191589
2103.197000,-1.190491
2106.197000,-1.197484
2109.197000,-1.199942
2112.197000,-1.200020
2115.197000,-1.203018
2118.195000,-1.201519
2121.196000,-1.210212
2124.196000,-1.216456
2127.196000,-1.220634
2130.196000,-1.228759
2133.196000,-1.230873
2136.194000,-1.237247
2139.195000,-1.246154
2142.195000,-1.251036
2145.195000,-1.257168
2148.195000,-1.270861
2151.193000,-1.277358
2154.193000,-1.287152
2157.193000,-1.298434
2160.194000,-1.307372
2163.194000,-1.318549
2166.192000,-1.325606
2169.192000,-1.337185
2172.192000,-1.351847
2175.192000,-1.363704
2178.193000,-1.373267
2181.193000,-1.386810
2184.191000,-1.399908
2187.191000,-1.413068
2190.191000,-1.425690
2193.191000,-1.437571
2196.191000,-1.451478
2199.190000,-1.469210
2202.190000,-1.482658
2205.190000,-1.500053
2208.190000,-1.517802
2211.190000,-1.532776
2214.188000,-1.547707
2217.189000,-1.561393
2220.189000,-1.577632
2223.189000,-1.591594
2226.189000,-1.609159
2229.187000,-1.620401
2232.187000,-1.639965
2235.188000,-1.652798
2238.188000,-1.668921
2241.188000,-1.686724
2244.188000,-1.704058
2247.186000,-1.718040
2250.186000,-1.734357
2253.186000,-1.746912
2256.187000,-1.763885
2259.187000,-1.777871
2262.185000,-1.791343
2265.185000,-1.806844
2268.185000,-1.820048
2271.185000,-1.837511
2274.186000,-1.848209
2277.186000,-1.865121
2280.184000,-1.878070
2283.184000,-1.896243
2286.184000,-1.911775
2289.184000,-1.924160
2292.184000,-1.939889
2295.183000,-1.951960
2298.183000,-1.967758
2301.183000,-1.981158
2304.183000,-1.999050
2307.183000,-2.012603
2310.181000,-2.027037
2313.182000,-2.039840
2316.182000,-2.055324
2319.182000,-2.069775
2322.182000,-2.086586
2325.182000,-2.101972
2328.180000,-2.112157
2331.180000,-2.126305
2334.181000,-2.139318
2337.181000,-2.150965
2340.181000,-2.164722
2343.179000,-2.176797
2346.179000,-2.187706
2349.179000,-2.200179
2352.180000,-2.213107
2355.180000,-2.222238
2358.178000,-2.229955
2361.178000,-2.241156
2364.178000,-2.251184
2367.178000,-2.260676
2370.178000,-2.265479
2373.177000,-2.271826
2376.177000,-2.280981
2379.177000,-2.284322
2382.177000,-2.291053
2385.177000,-2.299382
2388.177000,-2.301418
2391.176000,-2.305797
2394.176000,-2.311477
2397.176000,-2.313371
2400.176000,-2.312640
2403.176000,-2.312344
2406.174000,-2.319809
2409.174000,-2.321699
2412.175000,-2.324001
2415.175000,-2.322172
2418.175000,-2.321193
2421.173000,-2.319092
2424.173000,-2.316760
2427.173000,-2.322050
2430.174000,-2.313792
2433.174000,-2.299885
2436.174000,-2.306171
2439.172000,-2.311617
2442.172000,-2.304671
2445.172000,-2.290625
2448.172000,-2.291842
2451.173000,-2.289299
2454.171000,-2.275888
2457.171000,-2.278387
2460.171000,-2.268749
2463.171000,-2.268518
2466.171000,-2.255247
2469.170000,-2.248502
2472.170000,-2.238304
2475.170000,-2.247533
2478.170000,-2.219685
2481.170000,-2.215085
2484.168000,-2.208419
2487.168000,-2.191065
2490.169000,-2.187546
2493.169000,-2.184541
2496.169000,-2.167782
2499.169000,-2.149486
2502.167000,-2.157716
2505.167000,-2.132278
2508.168000,-2.116402
2511.168000,-2.109077
2514.168000,-2.093881
2517.166000,-2.081538
2520.166000,-2.080358
2523.166000,-2.055664
2526.166000,-2.049555
2529.167000,-2.032320
2532.165000,-2.017512
2535.165000,-2.004717
2538.165000,-1.987998
2541.165000,-1.984007
2544.165000,-1.968125
2547.166000,-1.949547
2550.164000,-1.940127
2553.164000,-1.928273
2556.164000,-1.908719
2559.164000,-1.903878
2562.164000,-1.892249
2565.163000,-1.883121
2568.164000,-1.864965
2571.164000,-1.850568
2574.163000,-1.835729
2577.163000,-1.827717
2580.161000,-1.817957
2583.161000,-1.819239
2586.162000,-1.799097
2589.162000,-1.792573
2592.162000,-1.772156
2595.160000,-1.756066
2598.160000,-1.745385
2601.160000,-1.745130
2604.161000,-1.740748
2607.161000,-1.729054
2610.161000,-1.704871
2613.159000,-1.689070
2616.159000,-1.674530
2619.159000,-1.668802
2622.159000,-1.655725
2625.160000,-1.660246
2628.158000,-1.637847
2631.158000,-1.627444
2634.158000,-1.631881
2637.158000,-1.612939
2640.158000,-1.606616
2643.157000,-1.586739
2646.157000,-1.569752
2649.157000,-1.561440
2652.157000,-1.554410
2655.157000,-1.549587
2658.157000,-1.528428
2661.155000,-1.523186
2664.156000,-1.512767
2667.156000,-1.502341
2670.156000,-1.504207
2673.156000,-1.485004
2676.154000,-1.481274
2679.154000,-1.488971
2682.155000,-1.475271
2685.155000,-1.456982
2688.155000,-1.466235
2691.153000,-1.444336
2694.153000,-1.454595
2697.153000,-1.442453
2700.153000,-1.435188
2703.154000,-1.423201
2706.154000,-1.431041
2709.152000,-1.414597
2712.152000,-1.421648
2715.152000,-1.410576
2718.152000,-1.411480
2721.153000,-1.415770
2724.151000,-1.405980
2727.151000,-1.392939
2730.151000,-1.412755
2733.151000,-1.406449
2736.151000,-1.386780
2739.149000,-1.392613
2742.150000,-1.404797
2745.150000,-1.397542
2748.150000,-1.381055
2751.150000,-1.399405
2754.148000,-1.404504
2757.148000,-1.400982
2760.149000,-1.393759
2763.149000,-1.401999
2766.149000,-1.414094
2769.149000,-1.413904
2772.147000,-1.414196
2775.147000,-1.414944
2778.147000,-1.417001
2781.148000,-1.422606
2784.148000,-1.414951
2787.146000,-1.427209
2790.146000,-1.434549
2793.146000,-1.437217
2796.146000,-1.444084
2799.147000,-1.447494
2802.145000,-1.451216
2805.145000,-1.457533
2808.145000,-1.465100
2811.145000,-1.470848
2814.145000,-1.478531
2817.145000,-1.486380
2820.144000,-1.490864
2823.144000,-1.498982
2826.144000,-1.508460
2829.144000,-1.515854
2832.144000,-1.523506
2835.142000,-1.535788
2838.143000,-1.539630
2841.143000,-1.547819
2844.143000,-1.558095
2847.142000,-1.567073
2850.142000,-1.572988
2853.142000,-1.581657
2856.142000,-1.590054
2859.141000,-1.599378
2862.141000,-1.609264
2865.141000,-1.614557
2868.141000,-1.625962
2871.141000,-1.636633
2874.139000,-1.647046
2877.140000,-1.655160
2880.140000,-1.660885
2883.140000,-1.671284
2886.139000,-1.683998
2889.139000,-1.693163
2892.139000,-1.701743
2895.139000,-1.712611
2898.138000,-1.720600
2901.138000,-1.730445
2904.138000,-1.738637
2907.138000,-1.745766
2910.138000,-1.758007
2913.138000,-1.763355
2916.137000,-1.773349
2919.137000,-1.781760
2922.137000,-1.789979
2925.137000,-1.799070
2928.137000,-1.807164
2931.135000,-1.815659
2934.135000,-1.825082
2937.136000,-1.834455
2940.136000,-1.842311
2943.136000,-1.846363
2946.134000,-1.859828
2949.134000,-1.864513
2952.134000,-1.874031
2955.135000,-1.877798
2958.135000,-1.890083
2961.133000,-1.899462
2964.133000,-1.904861
2967.133000,-1.914869
2970.133000,-1.922242
2973.134000,-1.928830
2976.134000,-1.932097
2979.132000,-1.944312
2982.132000,-1.946416
2985.132000,-1.954734
2988.132000,-1.963818
2991.132000,-1.968206
2994.131000,-1.974965
2997.131000,-1.980866
3000.132000,-1.986006
3003.130000,-1.990888
3006.130000,-1.995871
3009.130000,-2.004431
3012.130000,-2.010921
3015.130000,-2.015948
3018.130000,-2.015343
3021.130000,-2.022877
3024.130000,-2.025922
3027.128000,-2.024675
3030.128000,-2.034829
3033.129000,-2.036498
3036.129000,-2.042141
3039.129000,-2.046098
3042.127000,-2.046622
3045.127000,-2.047169
3048.127000,-2.049848
3051.128000,-2.055185
3054.128000,-2.048247
3057.126000,-2.056987
3060.126000,-2.058207
3063.126000,-2.043967
3066.126000,-2.032089
3069.126000,-2.038388
3072.125000,-2.046931
3075.125000,-2.049583
3078.125000,-2.055151
3081.125000,-2.046544
3084.125000,-2.033670
3087.125000,-2.052380
3090.124000,-2.045830
3093.124000,-2.029859
3096.124000,-2.041366
3099.124000,-2.046367
3102.124000,-2.029658
3105.122000,-2.027054
3108.122000,-2.025457
3111.123000,-2.012518
3114.123000,-2.017529
3117.123000,-2.021812
3120.121000,-1.995151
3123.121000,-1.986971
3126.121000,-1.984826
3129.122000,-1.984058
3132.122000,-1.981889
3135.122000,-1.971834
3138.120000,-1.964501
3141.120000,-1.973078
3144.120000,-1.956444
3147.120000,-1.947905
3150.121000,-1.942299
3153.119000,-1.938614
3156.119000,-1.939515
3159.119000,-1.929854
3162.119000,-1.942048
3165.119000,-1.914573
3168.120000,-1.908209
3171.118000,-1.900846
3174.118000,-1.896556
3177.118000,-1.892874
3180.118000,-1.885848
3183.118000,-1.879858
3186.116000,-1.885124
3189.118000,-1.866644
3192.116000,-1.858057
3195.116000,-1.845275
3198.116000,-1.844663
3201.116000,-1.846985
3204.116000,-1.834288
3207.115000,-1.838381
3210.115000,-1.814653
3213.115000,-1.823046
3216.115000,-1.802061
3219.115000,-1.791530
3222.115000,-1.784761
3225.113000,-1.797880
3228.114000,-1.776749
3231.114000,-1.782402
3234.114000,-1.759316
3237.114000,-1.756209
3240.112000,-1.766860
3243.112000,-1.745667
3246.113000,-1.756355
3249.113000,-1.737866
3252.113000,-1.727902
3255.111000,-1.713872
3258.111000,-1.700227
3261.111000,-1.700863
3264.111000,-1.713488
3267.112000,-1.685596
3270.112000,-1.679891
3273.110000,-1.671855
3276.110000,-1.661473
3279.110000,-1.658866
3282.110000,-1.664995
3285.111000,-1.660242
3288.109000,-1.642783
3291.110000,-1.655344
3294.110000,-1.642229
3297.108000,-1.642399
3300.108000,-1.626839
3303.108000,-1.626465
3306.109000,-1.621196
3309.109000,-1.618919
3312.107000,-1.602203
3315.107000,-1.607707
3318.107000,-1.598260
3321.107000,-1.599008
3324.108000,-1.578516
3327.106000,-1.577187
3330.106000,-1.571958
3333.106000,-1.582837
3336.106000,-1.580688
3339.106000,-1.562793
3342.107000,-1.569807
3345.105000,-1.572961
3348.105000,-1.551915
3351.104000,-1.575354
3354.104000,-1.561563
3357.104000,-1.540537
3360.104000,-1.551800
3363.105000,-1.551266
3366.103000,-1.538650
3369.103000,-1.554244
3372.103000,-1.560172
3375.103000,-1.538011
3378.103000,-1.530091
3381.104000,-1.557966
3384.102000,-1.556872
3387.102000,-1.534693
3390.102000,-1.554580
3393.102000,-1.555593
3396.102000,-1.556015
3399.100000,-1.552598
3402.101000,-1.558704
3405.101000,-1.563188
3408.101000,-1.545993
3411.101000,-1.542414
3414.101000,-1.566315
3417.099000,-1.567451
3420.100000,-1.576724
3423.100000,-1.571312
3426.100000,-1.574416
3429.100000,-1.578421
3432.098000,-1.579940
3435.098000,-1.577442
3438.098000,-1.585325
3441.099000,-1.594820
3444.099000,-1.597543
3447.098000,-1.601615
3450.098000,-1.605018
3453.098000,-1.608475
3456.096000,-1.605844
3459.097000,-1.617984
3462.097000,-1.618188
3465.097000,-1.623018
3468.097000,-1.628434
3471.095000,-1.632010
3474.095000,-1.633278
3477.095000,-1.646804
3480.096000,-1.648572
3483.096000,-1.649000
3486.094000,-1.654287
3489.094000,-1.659950
3492.094000,-1.663917
3495.094000,-1.672725
3498.095000,-1.677263
3501.095000,-1.683943
3504.093000,-1.689213
3507.093000,-1.696807
3510.093000,-1.699751
3513.092000,-1.704949
3516.092000,-1.708851
3519.093000,-1.718458
3522.093000,-1.725138
3525.093000,-1.730536
3528.091000,-1.732308
3531.091000,-1.734966
3534.091000,-1.742200
3537.092000,-1.743335
3540.092000,-1.754003
3543.090000,-1.754125
3546.090000,-1.754727
3549.090000,-1.772775
3552.090000,-1.778479
3555.090000,-1.781348
3558.089000,-1.783582
3561.089000,-1.784415
3564.089000,-1.796245
3567.089000,-1.794372
3570.089000,-1.806970
3573.087000,-1.811841
3576.088000,-1.819623
3579.088000,-1.822149
3582.088000,-1.826357
3585.088000,-1.829583
3588.088000,-1.834043
3591.086000,-1.842372
3594.086000,-1.845105
3597.087000,-1.852611
3600.087000,-1.857418
3603.087000,-1.860471
3606.085000,-1.865091
3609.085000,-1.867429
3612.085000,-1.873297
3615.086000,-1.877495
3618.086000,-1.880599
3621.084000,-1.867977
3624.084000,-1.884940
3627.084000,-1.893292
3630.084000,-1.898830
3633.084000,-1.903630
3636.085000,-1.905085
3639.083000,-1.905898
3642.083000,-1.907611
3645.083000,-1.901108
3648.083000,-1.905639
3651.083000,-1.920475
3654.082000,-1.924115
3657.082000,-1.915518
3660.082000,-1.918363
3663.082000,-1.928300
3666.082000,-1.916314
3669.080000,-1.909154
3672.080000,-1.929187
3675.081000,-1.935514
3678.081000,-1.934630
3681.081000,-1.936999
3684.079000,-1.936816
3687.079000,-1.934168
3690.079000,-1.939019
3693.080000,-1.940882
3696.080000,-1.917044
3699.080000,-1.924520
3702.078000,-1.939396
3705.078000,-1.944505
3708.077000,-1.939573
3711.077000,-1.928599
3714.078000,-1.944376
3717.078000,-1.928688
3720.078000,-1.922157
3723.078000,-1.941252
3726.076000,-1.938709
3729.076000,-1.920165
3732.077000,-1.943594
3735.077000,-1.928072
3738.077000,-1.922868
3741.075000,-1.939267
3744.075000,-1.922069
3747.075000,-1.918975
3750.076000,-1.933274
3753.076000,-1.923072
3756.074000,-1.905500
3759.074000,-1.916154
3762.074000,-1.924112
3765.074000,-1.904365
3768.074000,-1.903555
3771.075000,-1.900635
3774.073000,-1.899007
3777.073000,-1.905170
3780.073000,-1.883308
3783.073000,-1.881010
3786.073000,-1.898517
3789.072000,-1.891844
3792.072000,-1.892327
3795.072000,-1.881530
3798.072000,-1.868609
3801.072000,-1.883818
3804.070000,-1.868031
3807.070000,-1.863313
3810.071000,-1.872631
3813.071000,-1.852295
3816.071000,-1.854746
3819.071000,-1.839992
3822.069000,-1.842508
3825.069000,-1.835019
3828.070000,-1.852434
3831.070000,-1.832636
3834.070000,-1.833805
3837.068000,-1.820830
3840.068000,-1.813738
3843.068000,-1.829842
3846.068000,-1.809268
3849.069000,-1.824651
3852.067000,-1.814741
3855.067000,-1.807514
3858.067000,-1.799563
3861.067000,-1.802330
3864.067000,-1.795728
3867.068000,-1.780393
3870.066000,-1.779835
3873.066000,-1.788919
3876.066000,-1.774944
3879.066000,-1.780298
3882.066000,-1.781811
3885.064000,-1.764079
3888.065000,-1.778778
3891.065000,-1.766044
3894.065000,-1.758361
3897.065000,-1.756485
3900.065000,-1.742251
3903.063000,-1.762287
3906.064000,-1.753884
3909.064000,-1.749145
3912.064000,-1.753398
3915.062000,-1.732868
3918.062000,-1.739011
3921.062000,-1.728946
3924.062000,-1.728422
3927.063000,-1.727990
3930.063000,-1.727001
3933.061000,-1.733960
3936.061000,-1.715711
3939.061000,-1.717500
3942.061000,-1.718377
3945.062000,-1.708532
3948.060000,-1.705193
3951.060000,-1.709120
3954.060000,-1.702487
3957.060000,-1.702637
3960.060000,-1.712631
3963.058000,-1.698850
3966.059000,-1.709541
3969.059000,-1.708039
3972.059000,-1.694628
3975.059000,-1.689053
3978.059000,-1.693887
3981.057000,-1.687894
3984.058000,-1.690773
3987.058000,-1.701675
3990.058000,-1.699516
3993.058000,-1.689556
3996.056000,-1.682376
3999.056000,-1.698415
4002.056000,-1.699907
4005.057000,-1.690647
4008.057000,-1.678260
4011.055000,-1.677420
4014.055000,-1.679684
4017.055000,-1.696103
4020.055000,-1.693292
4023.056000,-1.685548
4026.056000,-1.675465
4029.054000,-1.685443
4032.054000,-1.699642
4035.054000,-1.697885
4038.054000,-1.696001
4041.054000,-1.699816
4044.053000,-1.699122
4047.053000,-1.699595
4050.053000,-1.698541
4053.053000,-1.699792
4056.053000,-1.708069
4059.051000,-1.688570
4062.052000,-1.704112
4065.052000,-1.709939
4068.052000,-1.713352
4071.052000,-1.714964
4074.050000,-1.704724
4077.050000,-1.689916
4080.050000,-1.709572
4083.051000,-1.720331
4086.051000,-1.714773
4089.051000,-1.700036
4092.049000,-1.707481
4095.049000,-1.725067
4098.049000,-1.725628
4101.050000,-1.730360
4104.050000,-1.731114
4107.048000,-1.731284
4110.048000,-1.715616
4113.048000,-1.716932
4116.048000,-1.737954
4119.049000,-1.740521
4122.047000,-1.741116
4125.047000,-1.742071
4128.047000,-1.744865
4131.047000,-1.755118
4134.047000,-1.750950
4137.047000,-1.759898
4140.046000,-1.760931
4143.046000,-1.761502
4146.046000,-1.764490
4149.046000,-1.768631
4152.046000,-1.767179
4155.044000,-1.771150
4158.045000,-1.777408
4161.045000,-1.771735
4164.045000,-1.776783
4167.045000,-1.781365
4170.043000,-1.783123
4173.043000,-1.781046
4176.043000,-1.773689
4179.044000,-1.783520
4182.044000,-1.791632
4185.042000,-1.795228
4188.042000,-1.800355
4191.042000,-1.791445
4194.042000,-1.797866
4197.043000,-1.807266
4200.043000,-1.809995
4203.041000,-1.797485
4206.041000,-1.799614
4209.041000,-1.813626
4212.041000,-1.792743
4215.041000,-1.810947
4218.040000,-1.822104
4221.040000,-1.819313
4224.040000,-1.824290
4227.040000,-1.830909
4230.040000,-1.822703
4233.038000,-1.822339
4236.039000,-1.834618
4239.039000,-1.823332
4242.039000,-1.830151
4245.039000,-1.842644
4248.039000,-1.842940
4251.037000,-1.852397
4254.037000,-1.851364
4257.038000,-1.850034
4260.038000,-1.858098
4263.038000,-1.851758
4266.036000,-1.841522
4269.036000,-1.844612
4272.036000,-1.857846
4275.037000,-1.847094
4278.037000,-1.848226
4281.037000,-1.856667
4284.035000,-1.867202
4287.035000,-1.853662
4290.035000,-1.859991
4293.035000,-1.874752
4296.036000,-1.878532
4299.034000,-1.875707
4302.034000,-1.860596
4305.033000,-1.856201
4308.033000,-1.879960
4311.033000,-1.883237
4314.034000,-1.883213
4317.034000,-1.886392
4320.034000,-1.880375
4323.032000,-1.873793
4326.032000,-1.873429
4329.032000,-1.886742
4332.032000,-1.889499
4335.033000,-1.893258
4338.031000,-1.893388
4341.031000,-1.884369
4344.031000,-1.880606
4347.031000,-1.882662
4350.031000,-1.883638
4353.030000,-1.887160
4356.030000,-1.893680
4359.030000,-1.893452
4362.030000,-1.874993
4365.030000,-1.872607
4368.030000,-1.875275
4371.028000,-1.879691
4374.029000,-1.882669
4377.029000,-1.893836
4380.029000,-1.887520
4383.029000,-1.872005
4386.027000,-1.892793
4389.027000,-1.880888
4392.028000,-1.872478
4395.028000,-1.891494
4398.028000,-1.880337
4401.026000,-1.864519
4404.026000,-1.877988
4407.026000,-1.885827
4410.026000,-1.885069
4413.027000,-1.876343
4416.025000,-1.870013
4419.025000,-1.882611
4422.025000,-1.877288
4425.025000,-1.862106
4428.025000,-1.852927
4431.026000,-1.857778
4434.024000,-1.875517
4437.024000,-1.856996
4440.024000,-1.848895
4443.024000,-1.847519
4446.024000,-1.851146
4449.022000,-1.848855
4452.023000,-1.864193
4455.023000,-1.846084
4458.023000,-1.863449
4461.023000,-1.847196
4464.021000,-1.848515
4467.021000,-1.856493
4470.022000,-1.835818
4473.022000,-1.853899
4476.022000,-1.838340
4479.022000,-1.833275
4482.020000,-1.826224
4485.021000,-1.822781
4488.020000,-1.821207
4491.020000,-1.828244
4494.020000,-1.832044
4497.020000,-1.816706
4500.020000,-1.821934
4503.020000,-1.817389
4506.018000,-1.813551
4509.019000,-1.820479
4512.019000,-1.816359
4515.019000,-1.815105
4518.019000,-1.825317
4521.017000,-1.805263
4524.017000,-1.821781
4527.018000,-1.816764
4530.018000,-1.796979
4533.018000,-1.816567
4536.016000,-1.794657
4539.016000,-1.790027
4542.016000,-1.812990
4545.016000,-1.804859
4548.017000,-1.790775
4551.015000,-1.807052
4554.015000,-1.790622
4557.015000,-1.790887
4560.015000,-1.797754
4563.015000,-1.782018
4566.016000,-1.790707
4569.014000,-1.787103
4572.014000,-1.776830
4575.014000,-1.785669
4578.014000,-1.791910
4581.014000,-1.791455
4584.012000,-1.791366
4587.013000,-1.782671
4590.013000,-1.772775
4593.013000,-1.790969
4596.013000,-1.775518
4599.011000,-1.782089
4602.011000,-1.782361
4605.012000,-1.783194
4608.012000,-1.781375
4611.012000,-1.777704
4614.012000,-1.770806
4617.010000,-1.766142
4620.010000,-1.761332
4623.010000,-1.766061
4626.011000,-1.781382
4629.011000,-1.773448
4632.009000,-1.762638
4635.009000,-1.765452
4638.009000,-1.778316
4641.009000,-1.762233
4644.010000,-1.761383
4647.008000,-1.765639
4650.008000,-1.760771
4653.008000,-1.760989
4656.008000,-1.761135
4659.008000,-1.762457
4662.008000,-1.764456
4665.007000,-1.767009
4668.007000,-1.777996
4671.007000,-1.774702
4674.007000,-1.770783
4677.007000,-1.762699
4680.005000,-1.770470
4683.006000,-1.781760
4686.006000,-1.775375
4689.006000,-1.761927
4692.006000,-1.758524
4695.004000,-1.777085
4698.004000,-1.781358
4701.004000,-1.781872
4704.005000,-1.782106
4707.005000,-1.779118
4710.003000,-1.775858
4713.003000,-1.776494
4716.003000,-1.761655
4719.003000,-1.777663
4722.004000,-1.780009
4725.004000,-1.768128
4728.002000,-1.785734
4731.002000,-1.779111
4734.001000,-1.777401
4737.001000,-1.778941
4740.001000,-1.778625
4743.002000,-1.785098
4746.002000,-1.792189
4749.002000,-1.789147
4752.000000,-1.782195
4755.000000,-1.789639
4758.000000,-1.793814
4761.001000,-1.791642
4764.001000,-1.799692
4766.999000,-1.782824
4769.999000,-1.781280
4772.999000,-1.790190
4775.999000,-1.802945
4778.999000,-1.801007
4781.998000,-1.788161
4784.998000,-1.782677
4787.998000,-1.803254
4790.998000,-1.808109
4793.998000,-1.809445
4796.998000,-1.785564
4799.997000,-1.806548
4802.997000,-1.812579
4805.997000,-1.807946
4808.997000,-1.800990
4811.997000,-1.790445
4814.995000,-1.805889
4817.996000,-1.811716
4820.996000,-1.803373
4823.996000,-1.800307
4826.996000,-1.790690
4829.994000,-1.816305
4832.994000,-1.817573
4835.994000,-1.817831
4838.995000,-1.822142
4841.995000,-1.822155
4844.995000,-1.822264
4847.993000,-1.818518
4850.993000,-1.806593
4853.993000,-1.806994
4856.994000,-1.821938
4859.994000,-1.824477
4862.992000,-1.816706
4865.992000,-1.820976
4868.992000,-1.817039
4871.992000,-1.822920
4874.992000,-1.822624
4877.991000,-1.830028
4880.992000,-1.820609
4883.992000,-1.805838
4886.990000,-1.809686
4889.990000,-1.822271
4892.990000,-1.830691
4895.991000,-1.831436
4898.991000,-1.831653
4901.989000,-1.813908
4904.989000,-1.819755
4907.989000,-1.828064
4910.989000,-1.826796
4913.989000,-1.823637
4916.988000,-1.822030
4919.988000,-1.829634
4922.988000,-1.825018
4925.988000,-1.815567
4928.988000,-1.823828
4931.987000,-1.814714
4934.988000,-1.802870
4937.988000,-1.815322
4940.986000,-1.828587
4943.986000,-1.821037
4946.986000,-1.807120
4949.986000,-1.805454
4952.986000,-1.811947
4955.987000,-1.821849
4958.985000,-1.820473
4961.985000,-1.801912
4964.985000,-1.797326
4967.985000,-1.809649
4970.985000,-1.822485
4973.984000,-1.818433
4976.984000,-1.800966
4979.984000,-1.819327
4982.984000,-1.815254
4985.984000,-1.795820
4988.982000,-1.815836
4991.982000,-1.810832
4994.983000,-1.799512
4997.983000,-1.820792
5000.983000,-1.806606
5003.983000,-1.812266
5006.981000,-1.819422
5009.981000,-1.796755
5012.982000,-1.790265
5015.982000,-1.793576
5018.982000,-1.791173
5021.980000,-1.792427
5024.980000,-1.791635
5027.980000,-1.789959
5030.980000,-1.804801
5033.981000,-1.812511
5036.979000,-1.790289
5039.979000,-1.811644
5042.979000,-1.800491
5045.979000,-1.792087
5048.979000,-1.800514
5051.978000,-1.812545
5054.978000,-1.796143
5057.978000,-1.794222
5060.978000,-1.811930
5063.978000,-1.804505
5066.978000,-1.801337
5069.976000,-1.793484
5072.977000,-1.781760
5075.977000,-1.781311
5078.977000,-1.785200
5081.977000,-1.790612
5084.975000,-1.807510
5087.975000,-1.791727
5090.976000,-1.797785
5093.976000,-1.808809
5096.976000,-1.801881
5099.974000,-1.792872
5102.974000,-1.795422
5105.974000,-1.801351
5108.974000,-1.784737
5111.975000,-1.791237
5114.975000,-1.805355
5117.973000,-1.809737
5120.974000,-1.799566
5123.972000,-1.783405
5126.972000,-1.784306
5129.973000,-1.800474
5132.973000,-1.801204
5135.973000,-1.781749
5138.971000,-1.781328
5141.971000,-1.788596
5144.971000,-1.805097
5147.971000,-1.791608
5150.972000,-1.789578
5153.972000,-1.804944
5156.970000,-1.790595
5159.970000,-1.788528
5162.970000,-1.804818
5165.970000,-1.810726
5168.971000,-1.792311
5171.971000,-1.790064
5174.969000,-1.806990
5177.969000,-1.790367
5180.969000,-1.793511
5183.969000,-1.797883
5186.969000,-1.783884
5189.968000,-1.806912
5192.968000,-1.787406
5195.968000,-1.806093
5198.968000,-1.805685
5201.968000,-1.802401
5204.966000,-1.797887
5207.967000,-1.793426
5210.967000,-1.800052
5213.967000,-1.800440
5216.967000,-1.803543
5219.965000,-1.808782
5222.965000,-1.811916
5225.966000,-1.808309
5228.966000,-1.800759
5231.966000,-1.800344
5234.964000,-1.793607
5237.964000,-1.795215
5240.964000,-1.784326
5243.964000,-1.805437
5246.965000,-1.812287
5249.965000,-1.801653
5252.963000,-1.795011
5255.963000,-1.811848
5258.963000,-1.807820
5261.963000,-1.801820
5264.964000,-1.803333
5267.962000,-1.809662
5270.962000,-1.811872
5273.962000,-1.811906
5276.962000,-1.811920
5279.962000,-1.812015
5282.960000,-1.811862
5285.961000,-1.801840
5288.961000,-1.789170
5291.961000,-1.788531
5294.961000,-1.805722
5297.961000,-1.812005
5300.959000,-1.811287
5303.960000,-1.807983
5306.960000,-1.811736
5309.960000,-1.811838
5312.960000,-1.805362
5315.958000,-1.802476
5318.958000,-1.801810
5321.958000,-1.801704
5324.959000,-1.801874
5327.959000,-1.802534
5330.957000,-1.799182
5333.957000,-1.787127
5336.957000,-1.807619
5339.957000,-1.806562
5342.958000,-1.792852
5345.958000,-1.804849
5348.956000,-1.813235
5351.956000,-1.800817
5354.956000,-1.804264
5357.956000,-1.817053
5360.956000,-1.797785
5363.955000,-1.787025
5366.955000,-1.807735
5369.954000,-1.816631
5372.954000,-1.819762
5375.954000,-1.819317
5378.954000,-1.798818
5381.955000,-1.802523
5384.955000,-1.817549
5387.953000,-1.812871
5390.953000,-1.816040
5393.953000,-1.819854
5396.953000,-1.816128
5399.953000,-1.807561
5402.952000,-1.793505
5405.952000,-1.795337
5408.952000,-1.817386
5411.952000,-1.813918
5414.952000,-1.808194
5417.950000,-1.797261
5420.951000,-1.809822
5423.951000,-1.818120
5426.951000,-1.806463
5429.951000,-1.796455
5432.951000,-1.817709
5435.949000,-1.821248
5438.949000,-1.809441
5441.949000,-1.800701
5444.949000,-1.821220
5447.949000,-1.825888
5450.949000,-1.818195
5453.949000,-1.801419
5456.949000,-1.815792
5459.948000,-1.822842
5462.948000,-1.803438
5465.948000,-1.817053
5468.948000,-1.829988
5471.948000,-1.825660
5474.946000,-1.822098
5477.946000,-1.816264
5480.947000,-1.815309
5483.947000,-1.812508
5486.947000,-1.822410
5489.945000,-1.833047
5492.945000,-1.816624
5495.945000,-1.823549
5498.945000,-1.819521
5501.945000,-1.815074
5504.945000,-1.832789
5507.945000,-1.824025
5510.945000,-1.820955
5513.943000,-1.819616
5516.943000,-1.841702
5519.944000,-1.839006
5522.944000,-1.819810
5525.944000,-1.813990
5528.942000,-1.822227
5531.942000,-1.838605
5534.942000,-1.823410
5537.943000,-1.841549
5540.943000,-1.841699
5543.943000,-1.832833
5546.941000,-1.842362
5549.941000,-1.842409
5552.941000,-1.840720
5555.941000,-1.827187
5558.942000,-1.846540
5561.940000,-1.848508
5564.940000,-1.845054
5567.941000,-1.848739
5570.939000,-1.851652
5573.939000,-1.842273
5576.940000,-1.840553
5579.940000,-1.827778
5582.940000,-1.823593
5585.938000,-1.835539
5588.938000,-1.848766
5591.938000,-1.834380
5594.939000,-1.837572
5597.939000,-1.854573
5600.937000,-1.854182
5603.937000,-1.854032
5606.937000,-1.856170
5609.937000,-1.856762
5612.937000,-1.838901
5615.936000,-1.853543
5618.936000,-1.853026
5621.936000,-1.851972
5624.936000,-1.850820
5627.936000,-1.851255
5630.936000,-1.852530
5633.935000,-1.852601
5636.935000,-1.850197
5639.935000,-1.842617
5642.935000,-1.847284
5645.935000,-1.854855
5648.933000,-1.855378
5651.933000,-1.852982
5654.934000,-1.861137
5657.934000,-1.857296
5660.934000,-1.852761
5663.932000,-1.848236
5666.932000,-1.843490
5669.932000,-1.858315
5672.933000,-1.856718
5675.933000,-1.841937
5678.933000,-1.862867
5681.931000,-1.863792
5684.931000,-1.865046
5687.931000,-1.851465
5690.931000,-1.845795
5693.932000,-1.864727
5696.930000,-1.849926
5699.930000,-1.857143
5702.930000,-1.863574
5705.930000,-1.845941
5708.930000,-1.846975
5711.929000,-1.855749
5714.929000,-1.864288
5717.929000,-1.853883
5720.929000,-1.842035
5723.929000,-1.861861
5726.929000,-1.850588
5729.927000,-1.844027
5732.928000,-1.852506
5735.928000,-1.850707
5738.928000,-1.839139
5741.928000,-1.841719
5744.926000,-1.846774
5747.926000,-1.859376
5750.927000,-1.844177
5753.927000,-1.846258
5756.927000,-1.860144
5759.925000,-1.841396
5762.925000,-1.833516
5765.925000,-1.832272
5768.925000,-1.832184
5771.926000,-1.853862
5774.926000,-1.858642
5777.924000,-1.841787
5780.924000,-1.847407
5783.924000,-1.860828
5786.924000,-1.852203
5789.925000,-1.844779
5792.923000,-1.828278
5795.923000,-1.838908
5798.923000,-1.856918
5801.923000,-1.839608
5804.923000,-1.837320
5807.922000,-1.852057
5810.923000,-1.848369
5813.923000,-1.831990
5816.921000,-1.835172
5819.921000,-1.847131
5822.921000,-1.827411
5825.921000,-1.851020
5828.922000,-1.843348
5831.920000,-1.827292
5834.920000,-1.846288
5837.920000,-1.851326
5840.920000,-1.845792
5843.920000,-1.843157
5846.920000,-1.828716
5849.919000,-1.826612
5852.919000,-1.827275
5855.919000,-1.822155
5858.919000,-1.820697
5861.919000,-1.819959
5864.917000,-1.823236
5867.918000,-1.825643
5870.918000,-1.817610
5873.918000,-1.814218
5876.918000,-1.835879
5879.916000,-1.835053
5882.916000,-1.825137
5885.916000,-1.818627
5888.917000,-1.816995
5891.917000,-1.822675
5894.915000,-1.826639
5897.915000,-1.831123
5900.915000,-1.834183
5903.914000,-1.820466
5906.915000,-1.830797
5909.915000,-1.812902
5912.915000,-1.837728
5915.915000,-1.810784
5918.913000,-1.820303
5921.913000,-1.828971
5924.913000,-1.818368
5927.914000,-1.805566
5930.914000,-1.805784
5933.914000,-1.825205
5936.912000,-1.821118
5939.912000,-1.802177
5942.912000,-1.814857
5945.913000,-1.824290
5948.913000,-1.805127
5951.911000,-1.826092
5954.911000,-1.815401
5957.911000,-1.802874
5960.911000,-1.810040
5963.911000,-1.811379
5966.910000,-1.805107
5969.910000,-1.804135
5972.910000,-1.807028
5975.910000,-1.816097
5978.910000,-1.797509
5981.908000,-1.803819
5984.909000,-1.819721
5987.909000,-1.822047
5990.909000,-1.821125
5993.909000,-1.818549
5996.909000,-1.815156
5999.907000,-1.816023
6002.908000,-1.810856
6005.908000,-1.800871
6008.908000,-1.821999
6011.908000,-1.814116
6014.906000,-1.802255
6017.906000,-1.804067
6020.906000,-1.817814
6023.907000,-1.807636
6026.907000,-1.793807
6029.905000,-1.791285
6032.905000,-1.791703
6035.905000,-1.790061
6038.905000,-1.803492
6041.905000,-1.815200
6044.905000,-1.812008
6047.905000,-1.805491
6050.905000,-1.790517
6053.903000,-1.805355
6056.903000,-1.811828
6059.903000,-1.798016
6062.904000,-1.795055
6065.904000,-1.812429
6068.904000,-1.811399
6071.902000,-1.803785
6074.902000,-1.792872
6077.902000,-1.809666
6080.903000,-1.797832
6083.903000,-1.797397
6086.901000,-1.804050
6089.901000,-1.800028
6092.901000,-1.789147
6095.901000,-1.809788
6098.901000,-1.811909
6101.900000,-1.806423
6104.900000,-1.796003
6107.900000,-1.782817
6110.900000,-1.796143
6113.900000,-1.808286
6116.898000,-1.807942
6119.899000,-1.801599
6122.899000,-1.792077
6125.899000,-1.792770
6128.899000,-1.811879
6131.899000,-1.795473
6134.897000,-1.781783
6137.897000,-1.794830
6140.898000,-1.809006
6143.898000,-1.790139
6146.898000,-1.785081
6149.896000,-1.811325
6152.896000,-1.807140
6155.896000,-1.787841
6158.897000,-1.785992
6161.897000,-1.800385
6164.895000,-1.809169
6167.895000,-1.796258
6170.895000,-1.785683
6173.894000,-1.783164
6176.894000,-1.794035
6179.895000,-1.793243
6182.895000,-1.798264
6185.894000,-1.803543
6188.894000,-1.810522
6191.894000,-1.811535
6194.894000,-1.791686
6197.893000,-1.803169
6200.893000,-1.795062
6203.894000,-1.801799
6206.892000,-1.810179
6209.892000,-1.803387
6212.892000,-1.785519
6215.892000,-1.785506
6218.893000,-1.796683
6221.891000,-1.809217
6224.891000,-1.810862
6227.891000,-1.797224
6230.891000,-1.785611
6233.891000,-1.796721
6236.890000,-1.811967
6239.890000,-1.801436
6242.890000,-1.792441
6245.890000,-1.806960
6248.890000,-1.788507
6251.889000,-1.796996
6254.889000,-1.811750
6257.890000,-1.811702
6260.888000,-1.808564
6263.888000,-1.786825
6266.888000,-1.790639
6269.888000,-1.808197
6272.888000,-1.797696
6275.889000,-1.786420
6278.887000,-1.791458
6281.887000,-1.792257
6284.887000,-1.801051
6287.887000,-1.805804
6290.887000,-1.809411
6293.885000,-1.794463
6296.886000,-1.787256
6299.886000,-1.806688
6302.886000,-1.808986
6305.886000,-1.798991
6308.884000,-1.798128
6311.884000,-1.809387
6314.885000,-1.791251
6317.885000,-1.808000
6320.885000,-1.786345
6323.883000,-1.791203
6326.883000,-1.810669
6329.883000,-1.803961
6332.884000,-1.788134
6335.884000,-1.805144
6338.883000,-1.806402
6341.883000,-1.790136
6344.883000,-1.801079
6347.881000,-1.811872
6350.881000,-1.793134
6353.882000,-1.789816
6356.882000,-1.799627
6359.882000,-1.802306
6362.882000,-1.815829
6365.880000,-1.805236
6368.880000,-1.793355
6371.881000,-1.813568
6374.881000,-1.808785
6377.881000,-1.802812
6380.879000,-1.793872
6383.879000,-1.802965
6386.879000,-1.818565
6389.879000,-1.812314
6392.880000,-1.795361
6395.878000,-1.797890
6398.879000,-1.813510
6401.879000,-1.819330
6404.877000,-1.796843
6407.877000,-1.795514
6410.878000,-1.811824
6413.878000,-1.812776
6416.878000,-1.803781
6419.876000,-1.821632
6422.876000,-1.811127
6425.876000,-1.796846
6428.876000,-1.801582
6431.877000,-1.816308
6434.875000,-1.818498
6437.875000,-1.821526
6440.875000,-1.808751
6443.875000,-1.794688
6446.875000,-1.801939
6449.876000,-1.809122
6452.874000,-1.819232
6455.874000,-1.798444
6458.874000,-1.795374
6461.874000,-1.814428
6464.874000,-1.814595
6467.872000,-1.796850
6470.873000,-1.795650
6473.873000,-1.807762
6476.873000,-1.820258
6479.873000,-1.801456
6482.871000,-1.798560
6485.871000,-1.818035
6488.872000,-1.822077
6491.872000,-1.822074
6494.872000,-1.821996
6497.870000,-1.813514
6500.870000,-1.802296
6503.870000,-1.797128
6506.870000,-1.808483
6509.871000,-1.821503
6512.871000,-1.817420
6515.869000,-1.800334
6518.869000,-1.816618
6521.869000,-1.822087
6524.869000,-1.822067
6527.870000,-1.813871
6530.868000,-1.802568
6533.868000,-1.810570
6536.868000,-1.819007
6539.868000,-1.812158
6542.868000,-1.804567
6545.866000,-1.801184
6548.867000,-1.812151
6551.867000,-1.821475
6554.867000,-1.821469
6557.867000,-1.821244
6560.867000,-1.822580
6563.865000,-1.811233
6566.866000,-1.805345
6569.866000,-1.817743
6572.866000,-1.822631
6575.866000,-1.816488
6578.864000,-1.803390
6581.864000,-1.819086
6584.864000,-1.823253
6587.865000,-1.811566
6590.865000,-1.807072
6593.863000,-1.824895
6596.863000,-1.808850
6599.863000,-1.818922
6602.863000,-1.823036
6605.864000,-1.821047
6608.862000,-1.812807
6611.862000,-1.803598
6614.862000,-1.803516
6617.862000,-1.817960
6620.862000,-1.823148
6623.862000,-1.803013
6626.861000,-1.823447
6629.861000,-1.816424
6632.861000,-1.801670
6635.861000,-1.815557
6638.861000,-1.818793
6641.859000,-1.810798
6644.860000,-1.803190
6647.860000,-1.799110
6650.860000,-1.801973
6653.860000,-1.822278
6656.860000,-1.808731
6659.858000,-1.802765
6662.858000,-1.822118
6665.859000,-1.809152
6668.859000,-1.801606
6671.859000,-1.802139
6674.857000,-1.801024
6677.857000,-1.800871
6680.857000,-1.797027
6683.858000,-1.820884
6686.858000,-1.821768
6689.856000,-1.814925
6692.856000,-1.808663
6695.856000,-1.799719
6698.856000,-1.818844
6701.856000,-1.821421
6704.855000,-1.813096
6707.855000,-1.806722
6710.855000,-1.795432
6713.855000,-1.801864
6716.855000,-1.799770
6719.855000,-1.792679
6722.854000,-1.817998
6725.854000,-1.796544
6728.854000,-1.813398
6731.854000,-1.815112
6734.854000,-1.805899
6737.852000,-1.794032
6740.853000,-1.791441
6743.853000,-1.794542
6746.853000,-1.793712
6749.853000,-1.793862
6752.851000,-1.810703
6755.851000,-1.792488
6758.851000,-1.805386
6761.851000,-1.813782
6764.851000,-1.805413
6767.851000,-1.783959
6770.851000,-1.791683
6773.851000,-1.791768
6776.849000,-1.793964
6779.850000,-1.786798
6782.850000,-1.800932
6785.849000,-1.811964
6788.849000,-1.811998
6791.849000,-1.807126
6794.849000,-1.784544
6797.849000,-1.785298
6800.848000,-1.789554
6803.848000,-1.784850
6806.848000,-1.782293
6809.848000,-1.788300
6812.848000,-1.782596
6815.848000,-1.804655
6818.847000,-1.794171
6821.847000,-1.802843
6824.847000,-1.800803
6827.847000,-1.796136
6830.847000,-1.802092
6833.845000,-1.796969
6836.845000,-1.784618
6839.846000,-1.806871
6842.846000,-1.788293
6845.846000,-1.802857
6848.844000,-1.802245
6851.844000,-1.801874
6854.844000,-1.800892
6857.845000,-1.803417
6860.845000,-1.788412
6863.843000,-1.781729
6866.843000,-1.787522
6869.843000,-1.792886
6872.843000,-1.801595
6875.843000,-1.792944
6878.844000,-1.786264
6881.842000,-1.803033
6884.842000,-1.784683
6887.842000,-1.793790
6890.842000,-1.801728
6893.842000,-1.799964
6896.841000,-1.800508
6899.841000,-1.801663
6902.841000,-1.801701
6905.841000,-1.803965
6908.841000,-1.795327
6911.839000,-1.788385
6914.840000,-1.803472
6917.841000,-1.801531
6920.839000,-1.808704
6923.839000,-1.790561
6926.839000,-1.797740
6929.839000,-1.802901
6932.838000,-1.783476
6935.839000,-1.803812
6938.839000,-1.804665
6941.839000,-1.800960
6944.837000,-1.790398
6947.837000,-1.788960
6950.837000,-1.808272
6953.837000,-1.797642
6956.838000,-1.787103
6959.836000,-1.800127
6962.836000,-1.809326
6965.836000,-1.803390
6968.836000,-1.790041
6971.836000,-1.795194
6974.835000,-1.807806
6977.835000,-1.789558
6980.835000,-1.811668
6983.835000,-1.806542
6986.835000,-1.794375
6989.835000,-1.811960
6992.833000,-1.811920
6995.834000,-1.812395
6998.834000,-1.804512
7001.834000,-1.800831
7004.834000,-1.789843
7007.832000,-1.813303
7010.832000,-1.809329
7013.834000,-1.787950
7016.832000,-1.807677
7019.832000,-1.813415
7022.832000,-1.815744
7025.832000,-1.810339
7028.832000,-1.800865
7031.830000,-1.790496
7034.831000,-1.790551
7037.831000,-1.809914
7040.831000,-1.816359
7043.831000,-1.815880
7046.829000,-1.812304
7049.829000,-1.807446
7052.830000,-1.801922
7055.830000,-1.792175
7058.830000,-1.795089
7061.830000,-1.801735
7064.828000,-1.802680
7067.828000,-1.811563
7070.828000,-1.815384
7073.829000,-1.800501
7076.828000,-1.794127
7079.828000,-1.811396
7082.828000,-1.804084
7085.826000,-1.794242
7088.826000,-1.817943
7091.827000,-1.813769
7094.827000,-1.809078
7097.827000,-1.798509
7100.827000,-1.814381
7103.825000,-1.804672
7106.825000,-1.791360
7109.826000,-1.791472
7112.826000,-1.793777
7115.826000,-1.793324
7118.824000,-1.801935
7121.824000,-1.812610
7124.824000,-1.796928
7127.824000,-1.800797
7130.825000,-1.802867
7133.823000,-1.795045
7136.823000,-1.809635
7139.823000,-1.799515
7142.823000,-1.789249
7145.823000,-1.804685
7148.824000,-1.811920
7151.822000,-1.811981
7154.822000,-1.803370
7157.822000,-1.784255
7160.822000,-1.805202
7163.822000,-1.811474
7166.820000,-1.801827
7169.821000,-1.804029
7172.821000,-1.804971
7175.821000,-1.797795
7178.821000,-1.788596
7181.819000,-1.802262
7184.819000,-1.789238
7187.820000,-1.810883
7190.820000,-1.798159
7193.820000,-1.801157
7196.820000,-1.806154
7199.818000,-1.810383
7202.818000,-1.793783
7205.818000,-1.797836
