Time(s),Position(V)
0.357000,0.605118
3.372000,0.598536
6.373000,0.593369
9.371000,0.587675
12.371000,0.584113
15.371000,0.581682
18.371000,0.573360
21.371000,0.566422
24.370000,0.561360
27.371000,0.554326
30.371000,0.552963
33.369000,0.554690
36.369000,0.548792
39.369000,0.543486
42.369000,0.540800
45.370000,0.542282
48.370000,0.532080
51.368000,0.533236
54.368000,0.524948
57.368000,0.535493
60.368000,0.533059
63.368000,0.522970
66.367000,0.523534
69.367000,0.523072
72.367000,0.523228
75.367000,0.516392
78.367000,0.512646
81.365000,0.513254
84.366000,0.511235
87.366000,0.516688
90.366000,0.532845
93.366000,0.514029
96.364000,0.531683
99.364000,0.529279
102.364000,0.515579
105.365000,0.523731
108.365000,0.540861
111.365000,0.542534
114.363000,0.541646
117.363000,0.529653
120.363000,0.548265
123.364000,0.543968
126.364000,0.548959
129.362000,0.563457
132.362000,0.563910
135.362000,0.554904
138.362000,0.568604
141.362000,0.575910
144.362000,0.554197
147.362000,0.576076
150.362000,0.589929
153.360000,0.585071
156.360000,0.594817
159.360000,0.599995
162.361000,0.588777
165.361000,0.600590
168.359000,0.611563
171.359000,0.610486
174.359000,0.635478
177.359000,0.633340
180.360000,0.629862
183.360000,0.651826
186.358000,0.639242
189.358000,0.666430
192.358000,0.662018
195.358000,0.667141
198.358000,0.689900
201.357000,0.697804
204.357000,0.706201
207.357000,0.710579
210.357000,0.717184
213.357000,0.719319
216.355000,0.730354
219.356000,0.739628
222.357000,0.744152
225.355000,0.744819
228.355000,0.757407
231.355000,0.758359
234.355000,0.787546
237.355000,0.773344
240.354000,0.796038
243.354000,0.799638
246.354000,0.814841
249.354000,0.824788
252.354000,0.819556
255.352000,0.839456
258.353000,0.840537
261.353000,0.849417
264.353000,0.857524
267.353000,0.866003
270.353000,0.882660
273.351000,0.878927
276.351000,0.892787
279.352000,0.897206
282.352000,0.905953
285.352000,0.890499
288.350000,0.920156
291.350000,0.931367
294.350000,0.933094
297.351000,0.944748
300.351000,0.947535
303.349000,0.952488
306.349000,0.961038
309.349000,0.945132
312.349000,0.959199
315.349000,0.979364
318.350000,0.973143
321.348000,0.972691
324.348000,0.979361
327.348000,0.971814
330.348000,0.997596
333.348000,1.003926
336.347000,1.011309
339.347000,0.992432
342.347000,1.011401
345.347000,1.006693
348.347000,1.005520
351.345000,1.026719
354.345000,1.020134
357.346000,1.020430
360.346000,1.038165
363.346000,1.019383
366.344000,1.031454
369.344000,1.044655
372.344000,1.048649
375.344000,1.043750
378.344000,1.041728
381.344000,1.045742
384.344000,1.060890
387.344000,1.040813
390.344000,1.038298
393.342000,1.049172
396.343000,1.059813
399.343000,1.041252
402.343000,1.029738
405.343000,1.039871
408.341000,1.049040
411.341000,1.059714
414.342000,1.036785
417.342000,1.031594
420.342000,1.035734
423.340000,1.023445
426.340000,1.032478
429.340000,1.037706
432.341000,1.017404
435.341000,1.008522
438.341000,0.994227
441.339000,0.975469
444.339000,0.959746
447.339000,0.941607
450.339000,0.919415
453.340000,0.893977
456.338000,0.869592
459.338000,0.839854
462.338000,0.809170
465.338000,0.773904
468.338000,0.742806
471.336000,0.706622
474.338000,0.670160
477.338000,0.629465
480.336000,0.586628
483.336000,0.543224
486.336000,0.498983
489.336000,0.453682
492.337000,0.408017
495.335000,0.359466
498.335000,0.306305
501.335000,0.251754
504.335000,0.200905
507.335000,0.145834
510.334000,0.091585
513.334000,0.037479
516.334000,-0.019363
519.333000,-0.078602
522.333000,-0.135047
525.333000,-0.194551
528.333000,-0.255633
531.334000,-0.318077
534.332000,-0.379373
537.332000,-0.443953
540.332000,-0.508321
543.332000,-0.573095
546.332000,-0.638745
549.333000,-0.704841
552.331000,-0.770376
555.331000,-0.832348
558.331000,-0.897577
561.331000,-0.960507
564.331000,-1.025964
567.329000,-1.089259
570.330000,-1.157768
573.330000,-1.222110
576.330000,-1.288161
579.330000,-1.356018
582.328000,-1.421155
585.328000,-1.489906
588.329000,-1.558061
591.329000,-1.621985
594.329000,-1.683879
597.327000,-1.746500
600.327000,-1.800236
603.327000,-1.858200
606.327000,-1.920339
609.328000,-1.979924
612.328000,-2.046397
615.326000,-2.113435
618.326000,-2.179374
621.326000,-2.243988
624.326000,-2.301037
627.327000,-2.355055
630.325000,-2.404578
633.325000,-2.450410
636.325000,-2.496238
639.325000,-2.544884
642.325000,-2.597389
645.323000,-2.652926
648.324000,-2.712869
651.324000,-2.768939
654.324000,-2.820516
657.324000,-2.865858
660.324000,-2.906114
663.322000,-2.941122
666.323000,-2.977853
669.323000,-3.012511
672.323000,-3.046675
675.323000,-3.083495
678.321000,-3.121953
681.321000,-3.163573
684.321000,-3.207524
687.322000,-3.245877
690.322000,-3.282598
693.320000,-3.316868
696.320000,-3.342972
699.320000,-3.368978
702.320000,-3.392275
705.321000,-3.408211
708.319000,-3.422958
711.319000,-3.441380
714.319000,-3.455226
717.319000,-3.469786
720.319000,-3.480120
723.319000,-3.487728
726.319000,-3.497746
729.319000,-3.507540
732.317000,-3.520465
735.317000,-3.525401
738.317000,-3.531347
741.317000,-3.531493
744.318000,-3.532778
747.318000,-3.536106
750.316000,-3.509835
753.316000,-3.525126
756.316000,-3.510290
759.316000,-3.497226
762.316000,-3.512068
765.315000,-3.479240
768.315000,-3.479097
771.315000,-3.460750
774.315000,-3.451898
777.315000,-3.435244
780.315000,-3.418797
783.314000,-3.411203
786.314000,-3.398254
789.314000,-3.379095
792.314000,-3.360751
795.314000,-3.342265
798.312000,-3.323905
801.312000,-3.307530
804.313000,-3.269303
807.313000,-3.243439
810.313000,-3.201001
813.312000,-3.165401
816.312000,-3.124333
819.312000,-3.083066
822.311000,-3.050173
825.311000,-3.019758
828.311000,-2.984917
831.311000,-2.958092
834.311000,-2.921674
837.309000,-2.890834
840.309000,-2.861408
843.310000,-2.823395
846.310000,-2.784118
849.310000,-2.741536
852.308000,-2.691724
855.308000,-2.639267
858.308000,-2.590977
861.309000,-2.542120
864.309000,-2.493301
867.309000,-2.455761
870.307000,-2.424407
873.307000,-2.379711
876.307000,-2.342405
879.308000,-2.300293
882.308000,-2.257732
885.306000,-2.209470
888.306000,-2.161435
891.306000,-2.107136
894.306000,-2.053210
897.306000,-2.002908
900.305000,-1.951597
903.305000,-1.904331
906.305000,-1.859352
909.305000,-1.811631
912.305000,-1.769974
915.304000,-1.727861
918.305000,-1.687044
921.305000,-1.643337
924.303000,-1.603414
927.303000,-1.560118
930.303000,-1.510605
933.303000,-1.466354
936.303000,-1.422899
939.304000,-1.378111
942.302000,-1.330165
945.302000,-1.286662
948.302000,-1.241051
951.302000,-1.198606
954.302000,-1.154844
957.301000,-1.121639
960.301000,-1.082052
963.301000,-1.044940
966.301000,-1.011663
969.301000,-0.972123
972.299000,-0.938972
975.299000,-0.903091
978.300000,-0.873451
981.300000,-0.838956
984.300000,-0.826725
987.298000,-0.783729
990.299000,-0.752746
993.299000,-0.720951
996.298000,-0.690403
999.298000,-0.660253
1002.298000,-0.639762
1005.298000,-0.613997
1008.298000,-0.585707
1011.296000,-0.557012
1014.296000,-0.534939
1017.298000,-0.510402
1020.296000,-0.493272
1023.296000,-0.476176
1026.296000,-0.468262
1029.296000,-0.442800
1032.296000,-0.440455
1035.295000,-0.415101
1038.295000,-0.399229
1041.295000,-0.393341
1044.295000,-0.403026
1047.295000,-0.395490
1050.295000,-0.386903
1053.293000,-0.361584
1056.294000,-0.358796
1059.294000,-0.351589
1062.294000,-0.367930
1065.294000,-0.368824
1068.292000,-0.350610
1071.292000,-0.362631
1074.293000,-0.368875
1077.293000,-0.380230
1080.293000,-0.384690
1083.291000,-0.391951
1086.291000,-0.396156
1089.291000,-0.402058
1092.291000,-0.411838
1095.292000,-0.422968
1098.290000,-0.434298
1101.290000,-0.450636
1104.291000,-0.464346
1107.289000,-0.477662
1110.289000,-0.491834
1113.290000,-0.511173
1116.290000,-0.526189
1119.290000,-0.546015
1122.288000,-0.563998
1125.288000,-0.588029
1128.288000,-0.607405
1131.288000,-0.632765
1134.289000,-0.654104
1137.289000,-0.679804
1140.287000,-0.706622
1143.287000,-0.731615
1146.287000,-0.758246
1149.287000,-0.784606
1152.288000,-0.807165
1155.286000,-0.836046
1158.286000,-0.866696
1161.286000,-0.898032
1164.286000,-0.930337
1167.286000,-0.960134
1170.286000,-0.992374
1173.285000,-1.027732
1176.285000,-1.054659
1179.285000,-1.088106
1182.285000,-1.123352
1185.285000,-1.156072
1188.283000,-1.190620
1191.284000,-1.228150
1194.284000,-1.262308
1197.284000,-1.301463
1200.284000,-1.338885
1203.282000,-1.377421
1206.282000,-1.415202
1209.283000,-1.449690
1212.282000,-1.490524
1215.282000,-1.531141
1218.282000,-1.568219
1221.282000,-1.604770
1224.282000,-1.640179
1227.280000,-1.673283
1230.282000,-1.712346
1233.282000,-1.747044
1236.280000,-1.780760
1239.280000,-1.812226
1242.280000,-1.846601
1245.280000,-1.878631
1248.281000,-1.916630
1251.281000,-1.951107
1254.279000,-1.986784
1257.279000,-2.024950
1260.279000,-2.063425
1263.279000,-2.102166
1266.277000,-2.139053
1269.278000,-2.177334
1272.278000,-2.215857
1275.278000,-2.250171
1278.278000,-2.283445
1281.278000,-2.315686
1284.276000,-2.344024
1287.277000,-2.371960
1290.277000,-2.397783
1293.277000,-2.425505
1296.277000,-2.449257
1299.275000,-2.474016
1302.275000,-2.498308
1305.275000,-2.524232
1308.276000,-2.549130
1311.276000,-2.575031
1314.274000,-2.600224
1317.274000,-2.627274
1320.274000,-2.651933
1323.274000,-2.681447
1326.275000,-2.709486
1329.273000,-2.735023
1332.273000,-2.757106
1335.273000,-2.779960
1338.273000,-2.800442
1341.273000,-2.821488
1344.273000,-2.836912
1347.272000,-2.850968
1350.273000,-2.869349
1353.271000,-2.878817
1356.271000,-2.889692
1359.271000,-2.902946
1362.271000,-2.911013
1365.272000,-2.915001
1368.272000,-2.921854
1371.270000,-2.932865
1374.270000,-2.938467
1377.270000,-2.943474
1380.270000,-2.945463
1383.270000,-2.951130
1386.269000,-2.943876
1389.269000,-2.949522
1392.269000,-2.955451
1395.269000,-2.941527
1398.269000,-2.933528
1401.267000,-2.933698
1404.268000,-2.940830
1407.268000,-2.944494
1410.268000,-2.927290
1413.268000,-2.942217
1416.268000,-2.920984
1419.266000,-2.909850
1422.266000,-2.901573
1425.267000,-2.910258
1428.267000,-2.891945
1431.267000,-2.883165
1434.265000,-2.874846
1437.265000,-2.861673
1440.265000,-2.849653
1443.266000,-2.834168
1446.266000,-2.822766
1449.264000,-2.806418
1452.264000,-2.791162
1455.264000,-2.772264
1458.264000,-2.760951
1461.264000,-2.738997
1464.263000,-2.715510
1467.263000,-2.692227
1470.263000,-2.673258
1473.263000,-2.644424
1476.263000,-2.616256
1479.263000,-2.593660
1482.262000,-2.572362
1485.262000,-2.545547
1488.261000,-2.520483
1491.261000,-2.496792
1494.261000,-2.476079
1497.261000,-2.455006
1500.261000,-2.429710
1503.262000,-2.408698
1506.260000,-2.385470
1509.260000,-2.360531
1512.260000,-2.337534
1515.260000,-2.316648
1518.260000,-2.290581
1521.259000,-2.261610
1524.259000,-2.233075
1527.259000,-2.204901
1530.259000,-2.171351
1533.259000,-2.140019
1536.257000,-2.105381
1539.257000,-2.073369
1542.258000,-2.040578
1545.258000,-2.007681
1548.258000,-1.973771
1551.258000,-1.946633
1554.256000,-1.912557
1557.256000,-1.883930
1560.257000,-1.856051
1563.257000,-1.822692
1566.257000,-1.795201
1569.255000,-1.771282
1572.255000,-1.749951
1575.255000,-1.724584
1578.255000,-1.697174
1581.256000,-1.673099
1584.254000,-1.649544
1587.254000,-1.623440
1590.254000,-1.592950
1593.254000,-1.568528
1596.254000,-1.536577
1599.255000,-1.511730
1602.253000,-1.484504
1605.253000,-1.457159
1608.253000,-1.434369
1611.253000,-1.407758
1614.253000,-1.374776
1617.252000,-1.348185
1620.252000,-1.325035
1623.252000,-1.301123
1626.252000,-1.281332
1629.252000,-1.251835
1632.250000,-1.227311
1635.250000,-1.208281
1638.251000,-1.188428
1641.251000,-1.166389
1644.251000,-1.145754
1647.251000,-1.126976
1650.249000,-1.111685
1653.249000,-1.099256
1656.250000,-1.077272
1659.250000,-1.060044
1662.250000,-1.046303
1665.248000,-1.036339
1668.248000,-1.021072
1671.248000,-1.013808
1674.248000,-0.996552
1677.248000,-0.983709
1680.248000,-0.967504
1683.247000,-0.975380
1686.247000,-0.956703
1689.247000,-0.948184
1692.247000,-0.939662
1695.246000,-0.955092
1698.246000,-0.928804
1701.246000,-0.931690
1704.246000,-0.928774
1707.246000,-0.905508
1710.246000,-0.902455
1713.244000,-0.915652
1716.245000,-0.919177
1719.245000,-0.899776
1722.245000,-0.914448
1725.245000,-0.913551
1728.243000,-0.911300
1731.243000,-0.911640
1734.244000,-0.921798
1737.244000,-0.924660
1740.243000,-0.929154
1743.243000,-0.933859
1746.243000,-0.940434
1749.243000,-0.943242
1752.241000,-0.948541
1755.242000,-0.949014
1758.242000,-0.963985
1761.242000,-0.972718
1764.242000,-0.980840
1767.240000,-0.990780
1770.240000,-1.001947
1773.241000,-1.011588
1776.241000,-1.028551
1779.241000,-1.037308
1782.241000,-1.046827
1785.239000,-1.060465
1788.239000,-1.076562
1791.239000,-1.085937
1794.240000,-1.104886
1797.240000,-1.122876
1800.238000,-1.127200
1803.238000,-1.150089
1806.238000,-1.164390
1809.238000,-1.182343
1812.239000,-1.201536
1815.237000,-1.219628
1818.237000,-1.240827
1821.237000,-1.254850
1824.237000,-1.278282
1827.237000,-1.298914
1830.235000,-1.319698
1833.236000,-1.341336
1836.236000,-1.362004
1839.236000,-1.380273
1842.236000,-1.405120
1845.236000,-1.425612
1848.234000,-1.447480
1851.235000,-1.468730
1854.235000,-1.492074
1857.235000,-1.519851
1860.235000,-1.541506
1863.233000,-1.563616
1866.233000,-1.583387
1869.233000,-1.606215
1872.234000,-1.626129
1875.234000,-1.650489
1878.234000,-1.671209
1881.232000,-1.694580
1884.232000,-1.718530
1887.232000,-1.737842
1890.233000,-1.760482
1893.233000,-1.779917
1896.231000,-1.798029
1899.231000,-1.819385
1902.231000,-1.839292
1905.231000,-1.858999
1908.231000,-1.880725
1911.230000,-1.903277
1914.230000,-1.925183
1917.230000,-1.945916
1920.230000,-1.965123
1923.230000,-1.989069
1926.228000,-2.012722
1929.229000,-2.030593
1932.229000,-2.053387
1935.229000,-2.076659
1938.229000,-2.099874
1941.229000,-2.118840
1944.227000,-2.141171
1947.227000,-2.159960
1950.228000,-2.181665
1953.228000,-2.201566
1956.228000,-2.221823
1959.226000,-2.239589
1962.226000,-2.259873
1965.226000,-2.273067
1968.227000,-2.288799
1971.227000,-2.304535
1974.225000,-2.315866
1977.225000,-2.332340
1980.225000,-2.346356
1983.225000,-2.356336
1986.226000,-2.368901
1989.226000,-2.380445
1992.224000,-2.392718
1995.224000,-2.401237
1998.223000,-2.412428
2001.223000,-2.421956
2004.223000,-2.427198
2007.224000,-2.434249
2010.224000,-2.441350
2013.224000,-2.448734
2016.222000,-2.455998
2019.222000,-2.449937
2022.222000,-2.467220
2025.223000,-2.474430
2028.223000,-2.477575
2031.221000,-2.475362
2034.221000,-2.475192
2037.221000,-2.488225
2040.221000,-2.492036
2043.221000,-2.491723
2046.220000,-2.494892
2049.220000,-2.493042
2052.220000,-2.480719
2055.220000,-2.466975
2058.220000,-2.473880
2061.218000,-2.486964
2064.219000,-2.477215
2067.219000,-2.464922
2070.219000,-2.481705
2073.219000,-2.466401
2076.219000,-2.463722
2079.217000,-2.452303
2082.217000,-2.442530
2085.218000,-2.438668
2088.218000,-2.434884
2091.218000,-2.428646
2094.216000,-2.440779
2097.216000,-2.413896
2100.216000,-2.409015
2103.217000,-2.397919
2106.217000,-2.390470
2109.215000,-2.379507
2112.215000,-2.379341
2115.215000,-2.365066
2118.215000,-2.352444
2121.215000,-2.346050
2124.216000,-2.334726
2127.214000,-2.330082
2130.214000,-2.315339
2133.214000,-2.306279
2136.214000,-2.300568
2139.214000,-2.274620
2142.213000,-2.269497
2145.213000,-2.255335
2148.213000,-2.232654
2151.213000,-2.217815
2154.213000,-2.204496
2157.211000,-2.182804
2160.211000,-2.170600
2163.212000,-2.151475
2166.212000,-2.130350
2169.212000,-2.110158
2172.210000,-2.098651
2175.210000,-2.073596
2178.210000,-2.058380
2181.211000,-2.043987
2184.211000,-2.014806
2187.211000,-2.000015
2190.209000,-1.976481
2193.209000,-1.955662
2196.209000,-1.937465
2199.209000,-1.917806
2202.210000,-1.904099
2205.208000,-1.889094
2208.208000,-1.866144
2211.208000,-1.848719
2214.208000,-1.829811
2217.208000,-1.811240
2220.209000,-1.797010
2223.207000,-1.787913
2226.207000,-1.771840
2229.207000,-1.764191
2232.207000,-1.741024
2235.207000,-1.727042
2238.205000,-1.707542
2241.206000,-1.695655
2244.206000,-1.676227
2247.206000,-1.662428
2250.206000,-1.644792
2253.204000,-1.629103
2256.204000,-1.631891
2259.205000,-1.603318
2262.205000,-1.585461
2265.205000,-1.563755
2268.205000,-1.544593
2271.203000,-1.532912
2274.203000,-1.516523
2277.203000,-1.505530
2280.203000,-1.484980
2283.203000,-1.474129
2286.203000,-1.461928
2289.203000,-1.446936
2292.201000,-1.433940
2295.201000,-1.416205
2298.202000,-1.405171
2301.202000,-1.381266
2304.202000,-1.376673
2307.202000,-1.360570
2310.200000,-1.347322
2313.200000,-1.334309
2316.200000,-1.322948
2319.201000,-1.313970
2322.201000,-1.307582
2325.199000,-1.293396
2328.199000,-1.294620
2331.199000,-1.306236
2334.199000,-1.275349
2337.200000,-1.264232
2340.198000,-1.259395
2343.198000,-1.256607
2346.198000,-1.249329
2349.197000,-1.251012
2352.197000,-1.235167
2355.198000,-1.235582
2358.198000,-1.219849
2361.198000,-1.224850
2364.196000,-1.215715
2367.196000,-1.220420
2370.196000,-1.220740
2373.196000,-1.210701
2376.197000,-1.213475
2379.195000,-1.227811
2382.195000,-1.227671
2385.195000,-1.209134
2388.195000,-1.219271
2391.195000,-1.232723
2394.196000,-1.237798
2397.194000,-1.237064
2400.194000,-1.242381
2403.194000,-1.240895
2406.194000,-1.246504
2409.194000,-1.250821
2412.192000,-1.243071
2415.193000,-1.246970
2418.193000,-1.263454
2421.193000,-1.267965
2424.193000,-1.276538
2427.191000,-1.278293
2430.191000,-1.289722
2433.192000,-1.295484
2436.192000,-1.302082
2439.192000,-1.308623
2442.192000,-1.313817
2445.190000,-1.326684
2448.190000,-1.335318
2451.190000,-1.346972
2454.191000,-1.355725
2457.191000,-1.367617
2460.189000,-1.369945
2463.189000,-1.385342
2466.189000,-1.396553
2469.189000,-1.407496
2472.190000,-1.419513
2475.188000,-1.425068
2478.188000,-1.440613
2481.188000,-1.452148
2484.188000,-1.467364
2487.188000,-1.481975
2490.188000,-1.491340
2493.187000,-1.509531
2496.187000,-1.520943
2499.187000,-1.535452
2502.187000,-1.550610
2505.187000,-1.563076
2508.185000,-1.575725
2511.186000,-1.590295
2514.186000,-1.602472
2517.186000,-1.615801
2520.186000,-1.628488
2523.184000,-1.645951
2526.184000,-1.656540
2529.184000,-1.668955
2532.185000,-1.683855
2535.185000,-1.700121
2538.185000,-1.713437
2541.183000,-1.727579
2544.183000,-1.739344
2547.183000,-1.755023
2550.184000,-1.764888
2553.184000,-1.779676
2556.182000,-1.784856
2559.182000,-1.803023
2562.182000,-1.816267
2565.182000,-1.829930
2568.182000,-1.842406
2571.181000,-1.855059
2574.181000,-1.867443
2577.181000,-1.882445
2580.181000,-1.895329
2583.181000,-1.910395
2586.181000,-1.922569
2589.180000,-1.931992
2592.180000,-1.944444
2595.180000,-1.958712
2598.180000,-1.972911
2601.180000,-1.986370
2604.178000,-2.001239
2607.178000,-2.010163
2610.179000,-2.020524
2613.179000,-2.030264
2616.179000,-2.042964
2619.177000,-2.056861
2622.177000,-2.068633
2625.177000,-2.074847
2628.178000,-2.090675
2631.178000,-2.104351
2634.176000,-2.111691
2637.176000,-2.121794
2640.176000,-2.132309
2643.176000,-2.139468
2646.176000,-2.148266
2649.177000,-2.154929
2652.175000,-2.165253
2655.175000,-2.172483
2658.175000,-2.178633
2661.175000,-2.187618
2664.175000,-2.191303
2667.174000,-2.194084
2670.174000,-2.205462
2673.174000,-2.210789
2676.174000,-2.214310
2679.174000,-2.209694
2682.172000,-2.222959
2685.172000,-2.223537
2688.173000,-2.229020
2691.173000,-2.227351
2694.173000,-2.230335
2697.173000,-2.235713
2700.171000,-2.230533
2703.171000,-2.226331
2706.172000,-2.226735
2709.172000,-2.226018
2712.172000,-2.219651
2715.170000,-2.213868
2718.170000,-2.220253
2721.170000,-2.213562
2724.170000,-2.207552
2727.171000,-2.216653
2730.169000,-2.211482
2733.169000,-2.200220
2736.169000,-2.206896
2739.169000,-2.190722
2742.169000,-2.188444
2745.168000,-2.196388
2748.168000,-2.185408
2751.168000,-2.173184
2754.167000,-2.168911
2757.167000,-2.163233
2760.167000,-2.176015
2763.168000,-2.150513
2766.168000,-2.144635
2769.166000,-2.143918
2772.166000,-2.121961
2775.166000,-2.123161
2778.166000,-2.125782
2781.166000,-2.108251
2784.167000,-2.111259
2787.165000,-2.085726
2790.165000,-2.095445
2793.165000,-2.074779
2796.165000,-2.059771
2799.165000,-2.043657
2802.164000,-2.043120
2805.164000,-2.026616
2808.164000,-2.017543
2811.164000,-2.012491
2814.164000,-2.008514
2817.162000,-1.980223
2820.162000,-1.966343
2823.163000,-1.953935
2826.163000,-1.942112
2829.163000,-1.931326
2832.163000,-1.925156
2835.161000,-1.907924
2838.161000,-1.901978
2841.162000,-1.889567
2844.162000,-1.890461
2847.162000,-1.875608
2850.160000,-1.856816
2853.160000,-1.843769
2856.160000,-1.827853
2859.160000,-1.818854
2862.161000,-1.808833
2865.161000,-1.797159
2868.159000,-1.788253
2871.159000,-1.781175
2874.159000,-1.773179
2877.159000,-1.768301
2880.158000,-1.757324
2883.158000,-1.740558
2886.158000,-1.735353
2889.158000,-1.721473
2892.158000,-1.710214
2895.158000,-1.706475
2898.156000,-1.686898
2901.157000,-1.684351
2904.157000,-1.672253
2907.157000,-1.670641
2910.157000,-1.657353
2913.155000,-1.638775
2916.155000,-1.627934
2919.156000,-1.619772
2922.156000,-1.609550
2925.156000,-1.600728
2928.156000,-1.591329
2931.154000,-1.582830
2934.154000,-1.571319
2937.154000,-1.560570
2940.155000,-1.548366
2943.155000,-1.553170
2946.153000,-1.532307
2949.153000,-1.526375
2952.153000,-1.518757
2955.153000,-1.516211
2958.154000,-1.502351
2961.152000,-1.520807
2964.152000,-1.497830
2967.152000,-1.478687
2970.152000,-1.485935
2973.152000,-1.468775
2976.150000,-1.463216
2979.151000,-1.460684
2982.151000,-1.478497
2985.151000,-1.458379
2988.151000,-1.444513
2991.151000,-1.444836
2994.149000,-1.435987
2997.150000,-1.430857
3000.150000,-1.427298
3003.150000,-1.427845
3006.150000,-1.443608
3009.148000,-1.421539
3012.148000,-1.420019
3015.148000,-1.416831
3018.149000,-1.429732
3021.149000,-1.432064
3024.147000,-1.418527
3027.148000,-1.428654
3030.148000,-1.434610
3033.146000,-1.427808
3036.147000,-1.419676
3039.147000,-1.435184
3042.147000,-1.439709
3045.147000,-1.434450
3048.145000,-1.436684
3051.145000,-1.444907
3054.145000,-1.434787
3057.146000,-1.436279
3060.146000,-1.452063
3063.144000,-1.454952
3066.144000,-1.456288
3069.144000,-1.459140
3072.144000,-1.463536
3075.145000,-1.474278
3078.145000,-1.476814
3081.144000,-1.485133
3084.144000,-1.486781
3087.144000,-1.495681
3090.142000,-1.499380
3093.142000,-1.505465
3096.143000,-1.514575
3099.143000,-1.517132
3102.143000,-1.526259
3105.141000,-1.535282
3108.141000,-1.539687
3111.141000,-1.547183
3114.142000,-1.552683
3117.141000,-1.561267
3120.141000,-1.569446
3123.141000,-1.578261
3126.141000,-1.587912
3129.139000,-1.597142
3132.140000,-1.600619
3135.140000,-1.609013
3138.140000,-1.614040
3141.140000,-1.625449
3144.138000,-1.635443
3147.138000,-1.646420
3150.138000,-1.653899
3153.139000,-1.659297
3156.139000,-1.668282
3159.137000,-1.676893
3162.137000,-1.687367
3165.137000,-1.696341
3168.137000,-1.705707
3171.138000,-1.712771
3174.138000,-1.723816
3177.136000,-1.732331
3180.136000,-1.740888
3183.136000,-1.752623
3186.136000,-1.760397
3189.136000,-1.763450
3192.135000,-1.777041
3195.135000,-1.784914
3198.135000,-1.790136
3201.135000,-1.799902
3204.135000,-1.809401
3207.133000,-1.818188
3210.134000,-1.826167
3213.134000,-1.833819
3216.134000,-1.842674
3219.134000,-1.850265
3222.132000,-1.861256
3225.132000,-1.866872
3228.132000,-1.868806
3231.133000,-1.883318
3234.133000,-1.892772
3237.133000,-1.901169
3240.131000,-1.907774
3243.131000,-1.916749
3246.131000,-1.924833
3249.132000,-1.933919
3252.132000,-1.939525
3255.130000,-1.945420
3258.130000,-1.947929
3261.130000,-1.961737
3264.130000,-1.966044
3267.129000,-1.971076
3270.130000,-1.978558
3273.130000,-1.985109
3276.130000,-1.992733
3279.128000,-2.000498
3282.128000,-2.005583
3285.128000,-2.008612
3288.129000,-2.015306
3291.129000,-2.020184
3294.129000,-2.025980
3297.127000,-2.029308
3300.127000,-2.031504
3303.127000,-2.037076
3306.127000,-2.037311
3309.128000,-2.046499
3312.126000,-2.047268
3315.126000,-2.054498
3318.126000,-2.055484
3321.125000,-2.036015
3324.125000,-2.059441
3327.126000,-2.066641
3330.126000,-2.063779
3333.126000,-2.062470
3336.124000,-2.066631
3339.125000,-2.066968
3342.123000,-2.066876
3345.123000,-2.066039
3348.125000,-2.066699
3351.123000,-2.066889
3354.123000,-2.067097
3357.123000,-2.067107
3360.123000,-2.061304
3363.123000,-2.048389
3366.122000,-2.050480
3369.122000,-2.056694
3372.122000,-2.048189
3375.122000,-2.046564
3378.122000,-2.048995
3381.122000,-2.029567
3384.120000,-2.046173
3387.121000,-2.036780
3390.121000,-2.023356
3393.121000,-2.030090
3396.121000,-2.033541
3399.119000,-2.013283
3402.119000,-2.005301
3405.120000,-1.999441
3408.120000,-1.992598
3411.120000,-1.984684
3414.118000,-2.000012
3417.118000,-1.993033
3420.118000,-1.973452
3423.118000,-1.973720
3426.119000,-1.968244
3429.119000,-1.966663
3432.117000,-1.946640
3435.117000,-1.949856
3438.117000,-1.940433
3441.117000,-1.941398
3444.118000,-1.948085
3447.116000,-1.919727
3450.116000,-1.915950
3453.116000,-1.910606
3456.116000,-1.902274
3459.116000,-1.899639
3462.114000,-1.893279
3465.115000,-1.901339
3468.115000,-1.888248
3471.115000,-1.872892
3474.115000,-1.867147
3477.113000,-1.860671
3480.113000,-1.853026
3483.114000,-1.845051
3486.114000,-1.842059
3489.114000,-1.822927
3492.114000,-1.818076
3495.112000,-1.834591
3498.112000,-1.813334
3501.113000,-1.800113
3504.113000,-1.795884
3507.113000,-1.809622
3510.111000,-1.784024
3513.111000,-1.781192
3516.111000,-1.769049
3519.111000,-1.767876
3522.112000,-1.761587
3525.110000,-1.758412
3528.110000,-1.744913
3531.110000,-1.745018
3534.110000,-1.743784
3537.110000,-1.740052
3540.111000,-1.719696
3543.109000,-1.736397
3546.109000,-1.711618
3549.109000,-1.702474
3552.109000,-1.696576
3555.109000,-1.690389
3558.107000,-1.685738
3561.108000,-1.674167
3564.108000,-1.680014
3567.108000,-1.670074
3570.108000,-1.682801
3573.106000,-1.660970
3576.106000,-1.654572
3579.107000,-1.652801
3582.107000,-1.642878
3585.107000,-1.657948
3588.105000,-1.644143
3591.105000,-1.636497
3594.105000,-1.642586
3597.105000,-1.629419
3600.106000,-1.631558
3603.104000,-1.617498
3606.104000,-1.612524
3609.104000,-1.606582
3612.104000,-1.601044
3615.104000,-1.597499
3618.105000,-1.604801
3621.103000,-1.599912
3624.103000,-1.588714
3627.103000,-1.583928
3630.103000,-1.582864
3633.103000,-1.573777
3636.103000,-1.569688
3639.102000,-1.577088
3642.102000,-1.569161
3645.102000,-1.557915
3648.102000,-1.556300
3651.102000,-1.550984
3654.100000,-1.552925
3657.101000,-1.549359
3660.101000,-1.550470
3663.101000,-1.575320
3666.101000,-1.577047
3669.099000,-1.565166
3672.099000,-1.551480
3675.099000,-1.574379
3678.100000,-1.577340
3681.100000,-1.569878
3684.100000,-1.549240
3687.098000,-1.547027
3690.098000,-1.561022
3693.098000,-1.574192
3696.099000,-1.577374
3699.099000,-1.577744
3702.097000,-1.577404
3705.097000,-1.582996
3708.097000,-1.577533
3711.097000,-1.577510
3714.097000,-1.578540
3717.096000,-1.588096
3720.096000,-1.587372
3723.096000,-1.574984
3726.096000,-1.569450
3729.096000,-1.593137
3732.094000,-1.599089
3735.095000,-1.607874
3738.095000,-1.601506
3741.095000,-1.596027
3744.095000,-1.612317
3747.095000,-1.612847
3750.093000,-1.617188
3753.093000,-1.621427
3756.094000,-1.627128
3759.094000,-1.628770
3762.094000,-1.638476
3765.092000,-1.634474
3768.092000,-1.646277
3771.092000,-1.643146
3774.093000,-1.649286
3777.093000,-1.654711
3780.091000,-1.651479
3783.091000,-1.660613
3786.091000,-1.664043
3789.091000,-1.673062
3792.091000,-1.671447
3795.092000,-1.681469
3798.090000,-1.688869
3801.090000,-1.695366
3804.089000,-1.691939
3807.089000,-1.700461
3810.089000,-1.709987
3813.090000,-1.716592
3816.090000,-1.700669
3819.088000,-1.714800
3822.088000,-1.730214
3825.088000,-1.734024
3828.088000,-1.737764
3831.089000,-1.735721
3834.089000,-1.747316
3837.087000,-1.757515
3840.087000,-1.750943
3843.087000,-1.762386
3846.087000,-1.768974
3849.087000,-1.776490
3852.086000,-1.778143
3855.086000,-1.784003
3858.086000,-1.786124
3861.086000,-1.788174
3864.086000,-1.798760
3867.084000,-1.801728
3870.085000,-1.808044
3873.085000,-1.812865
3876.085000,-1.820568
3879.085000,-1.813745
3882.085000,-1.827357
3885.083000,-1.832789
3888.083000,-1.837905
3891.084000,-1.840322
3894.084000,-1.843823
3897.084000,-1.852502
3900.082000,-1.858006
3903.082000,-1.854800
3906.082000,-1.862898
3909.083000,-1.867552
3912.083000,-1.873637
3915.081000,-1.876557
3918.081000,-1.880364
3921.081000,-1.885402
3924.081000,-1.889264
3927.081000,-1.888771
3930.082000,-1.893918
3933.080000,-1.900445
3936.080000,-1.903630
3939.080000,-1.904456
3942.080000,-1.903436
3945.080000,-1.887411
3948.079000,-1.897256
3951.079000,-1.918788
3954.079000,-1.919030
3957.079000,-1.924143
3960.079000,-1.922480
3963.077000,-1.923554
3966.077000,-1.929772
3969.078000,-1.923079
3972.078000,-1.917847
3975.078000,-1.919159
3978.076000,-1.925431
3981.076000,-1.935555
3984.076000,-1.936217
3987.077000,-1.941786
3990.077000,-1.944369
3993.077000,-1.938475
3996.075000,-1.927345
3999.075000,-1.919611
4002.074000,-1.940144
4005.074000,-1.934297
4008.075000,-1.926699
4011.075000,-1.916562
4014.075000,-1.940083
4017.075000,-1.939246
4020.073000,-1.934293
4023.073000,-1.929031
4026.074000,-1.913676
4029.074000,-1.920189
4032.074000,-1.927270
4035.073000,-1.935109
4038.073000,-1.931754
4041.073000,-1.924109
4044.071000,-1.911211
4047.072000,-1.909919
4050.072000,-1.923990
4053.072000,-1.924928
4056.072000,-1.918846
4059.070000,-1.895485
4062.070000,-1.906051
4065.071000,-1.920475
4068.071000,-1.895390
4071.071000,-1.909399
4074.069000,-1.898446
4077.069000,-1.879990
4080.069000,-1.890988
4083.069000,-1.882927
4086.070000,-1.893235
4089.070000,-1.895227
4092.068000,-1.871074
4095.068000,-1.879797
4098.068000,-1.875925
4101.068000,-1.864737
4104.069000,-1.862062
4107.067000,-1.875928
4110.067000,-1.863180
4113.067000,-1.851245
4116.067000,-1.865849
4119.067000,-1.842508
4122.065000,-1.852128
4125.066000,-1.854321
4128.066000,-1.830049
4131.066000,-1.844619
4134.066000,-1.835702
4137.066000,-1.818430
4140.064000,-1.813126
4143.065000,-1.824780
4146.065000,-1.823644
4149.065000,-1.801276
4152.065000,-1.802265
4155.063000,-1.798077
4158.063000,-1.815173
4161.063000,-1.808272
4164.064000,-1.781899
4167.064000,-1.781433
4170.062000,-1.775494
4173.062000,-1.777871
4176.062000,-1.796455
4179.062000,-1.781035
4182.063000,-1.778431
4185.061000,-1.772479
4188.061000,-1.760870
4191.061000,-1.768726
4194.061000,-1.774515
4197.061000,-1.748836
4200.061000,-1.759911
4203.060000,-1.769991
4206.060000,-1.748509
4209.060000,-1.740531
4212.060000,-1.738389
4215.060000,-1.747561
4218.058000,-1.754992
4221.059000,-1.738824
4224.059000,-1.751440
4227.058000,-1.736662
4230.058000,-1.726236
4233.058000,-1.728983
4236.058000,-1.719451
4239.059000,-1.736278
4242.057000,-1.723170
4245.057000,-1.723493
4248.057000,-1.726328
4251.057000,-1.702457
4254.057000,-1.697266
4257.055000,-1.712360
4260.056000,-1.715263
4263.056000,-1.695318
4266.056000,-1.690634
4269.056000,-1.689967
4272.056000,-1.700584
4275.054000,-1.711656
4278.055000,-1.705340
4281.055000,-1.684668
4284.055000,-1.679344
4287.055000,-1.679317
4290.053000,-1.679211
4293.053000,-1.678531
4296.052000,-1.679694
4299.053000,-1.677845
4302.053000,-1.672552
4305.053000,-1.678790
4308.053000,-1.693163
4311.053000,-1.698789
4314.051000,-1.678759
4317.052000,-1.670611
4320.052000,-1.672443
4323.052000,-1.669435
4326.052000,-1.679249
4329.050000,-1.695702
4332.050000,-1.684460
4335.050000,-1.677678
4338.051000,-1.695777
4341.051000,-1.686751
4344.049000,-1.679300
4347.049000,-1.673762
4350.049000,-1.679222
4353.049000,-1.699231
4356.050000,-1.689685
4359.050000,-1.681737
4362.048000,-1.684154
4365.048000,-1.690372
4368.048000,-1.701111
4371.048000,-1.701668
4374.048000,-1.699734
4377.047000,-1.699737
4380.047000,-1.703518
4383.047000,-1.708481
4386.047000,-1.707825
4389.047000,-1.711676
4392.047000,-1.713515
4395.046000,-1.702593
4398.047000,-1.711452
4401.045000,-1.714420
4404.045000,-1.709905
4407.045000,-1.712907
4410.045000,-1.722102
4413.045000,-1.721385
4416.044000,-1.724893
4419.044000,-1.729806
4422.044000,-1.730088
4425.044000,-1.729428
4428.044000,-1.731339
4431.044000,-1.730292
4434.043000,-1.738722
4437.043000,-1.734626
4440.043000,-1.739899
4443.043000,-1.729078
4446.043000,-1.731339
4449.041000,-1.744134
4452.041000,-1.743587
4455.042000,-1.755471
4458.042000,-1.757644
4461.042000,-1.749971
4464.040000,-1.758065
4467.040000,-1.740935
4470.040000,-1.744155
4473.041000,-1.761458
4476.041000,-1.768474
4479.041000,-1.770898
4482.039000,-1.762461
4485.039000,-1.761009
4488.039000,-1.775505
4491.039000,-1.771085
4494.040000,-1.766802
4497.038000,-1.780094
4500.038000,-1.775695
4503.038000,-1.773978
4506.038000,-1.783650
4509.038000,-1.783269
4512.037000,-1.791217
4515.037000,-1.791536
4518.037000,-1.786685
4521.037000,-1.793953
4524.037000,-1.782297
4527.037000,-1.780498
4530.035000,-1.802574
4533.036000,-1.801300
4536.036000,-1.806232
4539.036000,-1.809472
4542.036000,-1.811580
4545.034000,-1.811736
4548.034000,-1.811161
4551.035000,-1.809598
4554.035000,-1.817542
4557.035000,-1.820048
4560.033000,-1.821849
4563.033000,-1.822070
4566.033000,-1.823461
4569.033000,-1.811250
4572.034000,-1.818283
4575.032000,-1.829036
4578.032000,-1.822101
4581.032000,-1.827357
4584.032000,-1.832330
4587.032000,-1.813667
4590.033000,-1.821928
4593.031000,-1.830882
4596.031000,-1.836831
4599.031000,-1.832806
4602.031000,-1.842076
4605.031000,-1.832945
4608.030000,-1.822754
4611.030000,-1.830402
4614.030000,-1.848362
4617.030000,-1.834591
4620.030000,-1.825735
4623.028000,-1.848824
4626.028000,-1.848902
4629.029000,-1.840852
4632.029000,-1.855919
4635.029000,-1.860875
4638.029000,-1.858904
4641.027000,-1.844779
4644.027000,-1.838170
4647.028000,-1.845853
4650.028000,-1.861684
4653.028000,-1.862959
4656.026000,-1.862589
4659.027000,-1.854182
4662.027000,-1.848039
4665.025000,-1.863265
4668.026000,-1.865675
4671.026000,-1.863704
4674.026000,-1.858516
4677.026000,-1.845986
4680.024000,-1.854848
4683.025000,-1.864033
4686.024000,-1.865138
4689.024000,-1.850731
4692.024000,-1.854899
4695.024000,-1.869493
4698.024000,-1.860505
4701.024000,-1.852332
4704.022000,-1.866627
4707.023000,-1.865757
4710.023000,-1.862123
4713.023000,-1.849949
4716.023000,-1.849484
4719.021000,-1.845377
4722.021000,-1.848811
4725.022000,-1.845642
4728.022000,-1.848192
4731.022000,-1.863234
4734.020000,-1.862928
4737.020000,-1.860219
4740.020000,-1.846414
4743.020000,-1.858652
4746.021000,-1.858781
4749.021000,-1.840217
4752.019000,-1.858598
4755.019000,-1.857836
4758.019000,-1.839414
4761.019000,-1.841852
4764.020000,-1.841617
4767.018000,-1.832915
4770.018000,-1.848627
4773.018000,-1.852723
4776.018000,-1.848532
4779.018000,-1.827853
4782.016000,-1.833462
4785.017000,-1.847610
4788.017000,-1.832687
4791.017000,-1.834628
4794.017000,-1.837555
4797.017000,-1.831079
4800.015000,-1.829665
4803.016000,-1.821509
4806.016000,-1.829362
4809.016000,-1.822019
4812.016000,-1.832745
4815.014000,-1.813150
4818.014000,-1.820704
4821.014000,-1.822839
4824.015000,-1.812521
4827.015000,-1.816298
4830.013000,-1.812039
4833.013000,-1.804322
4836.013000,-1.818426
4839.013000,-1.798196
4842.014000,-1.806644
4845.014000,-1.810346
4848.012000,-1.790700
4851.012000,-1.790833
4854.012000,-1.785907
4857.012000,-1.794851
4860.012000,-1.796207
4863.011000,-1.790972
4866.011000,-1.793681
4869.011000,-1.780753
4872.011000,-1.780855
4875.011000,-1.789109
4878.009000,-1.779203
4881.010000,-1.783265
4884.010000,-1.773315
4887.010000,-1.781297
4890.010000,-1.776728
4893.008000,-1.767274
4896.008000,-1.780872
4899.008000,-1.768464
4902.009000,-1.763083
4905.009000,-1.771136
4908.009000,-1.770232
4911.007000,-1.759388
4914.007000,-1.769963
4917.007000,-1.754482
4920.008000,-1.753483
4923.008000,-1.756617
4926.006000,-1.741884
4929.006000,-1.742713
4932.006000,-1.752296
4935.006000,-1.750009
4938.006000,-1.742095
4941.007000,-1.741659
4944.005000,-1.747816
4947.005000,-1.736020
4950.005000,-1.742948
4953.005000,-1.730887
4956.005000,-1.742656
4959.004000,-1.731577
4962.004000,-1.740687
4965.004000,-1.734697
4968.004000,-1.729258
4971.004000,-1.734959
4974.002000,-1.726110
4977.003000,-1.737635
4980.003000,-1.725114
4983.003000,-1.732933
4986.003000,-1.732508
4989.001000,-1.723809
4992.001000,-1.731016
4995.001000,-1.731716
4998.002000,-1.730125
5001.002000,-1.718414
5004.002000,-1.719396
5007.000000,-1.731808
5010.000000,-1.719005
5013.000000,-1.711965
5016.001000,-1.731672
5019.001000,-1.723469
5021.999000,-1.713209
5024.999000,-1.722225
5027.999000,-1.722119
5030.999000,-1.725318
5033.999000,-1.731862
5036.998000,-1.733494
5039.998000,-1.719998
5042.998000,-1.736550
5045.998000,-1.732974
5048.998000,-1.723588
5051.996000,-1.738943
5054.997000,-1.731536
5057.997000,-1.725373
5060.997000,-1.740123
5063.997000,-1.740374
5066.997000,-1.739722
5069.995000,-1.740575
5072.995000,-1.737400
5075.996000,-1.730751
5078.996000,-1.744189
5081.996000,-1.741088
5084.994000,-1.734895
5087.994000,-1.751317
5090.994000,-1.755468
5093.995000,-1.759728
5096.995000,-1.752820
5099.993000,-1.746616
5102.993000,-1.759337
5105.993000,-1.741143
5108.993000,-1.755985
5111.993000,-1.763647
5114.994000,-1.766289
5117.992000,-1.761631
5120.992000,-1.766418
5123.992000,-1.768202
5126.992000,-1.760190
5129.992000,-1.771803
5132.991000,-1.778530
5135.991000,-1.777184
5138.992000,-1.776467
5141.990000,-1.781352
5144.990000,-1.781335
5147.990000,-1.782011
5150.990000,-1.781209
5153.991000,-1.772724
5156.989000,-1.784316
5159.989000,-1.788093
5162.989000,-1.786002
5165.989000,-1.783123
5168.989000,-1.795704
5171.988000,-1.792971
5174.988000,-1.797533
5177.988000,-1.801935
5180.988000,-1.801939
5183.988000,-1.805763
5186.988000,-1.808707
5189.986000,-1.811903
5192.987000,-1.812011
5195.987000,-1.816223
5198.987000,-1.817539
5201.987000,-1.822115
5204.985000,-1.822145
5207.985000,-1.822026
5210.986000,-1.822342
5213.986000,-1.822964
5216.986000,-1.810981
5219.984000,-1.830236
5222.984000,-1.832622
5225.984000,-1.828964
5228.984000,-1.826272
5231.985000,-1.839686
5234.985000,-1.839533
5237.983000,-1.838191
5240.983000,-1.829094
5243.983000,-1.842817
5246.983000,-1.829148
5249.984000,-1.845057
5252.982000,-1.849626
5255.982000,-1.842715
5258.982000,-1.842205
5261.982000,-1.851214
5264.982000,-1.854267
5267.980000,-1.852771
5270.981000,-1.852931
5273.981000,-1.857839
5276.981000,-1.840149
5279.981000,-1.859702
5282.979000,-1.862572
5285.979000,-1.847509
5288.980000,-1.837307
5291.980000,-1.848056
5294.980000,-1.861892
5297.980000,-1.861457
5300.978000,-1.855535
5303.978000,-1.852665
5306.978000,-1.846342
5309.979000,-1.856296
5312.979000,-1.862901
5315.977000,-1.858268
5318.977000,-1.846261
5321.977000,-1.858638
5324.977000,-1.845472
5327.978000,-1.860974
5330.976000,-1.847250
5333.976000,-1.861423
5336.976000,-1.851771
5339.976000,-1.848460
5342.976000,-1.856820
5345.977000,-1.839612
5348.975000,-1.855535
5351.975000,-1.852642
5354.975000,-1.838140
5357.975000,-1.836406
5360.975000,-1.832398
5363.973000,-1.833309
5366.974000,-1.825123
5369.974000,-1.822499
5372.974000,-1.830674
5375.974000,-1.843205
5378.972000,-1.832163
5381.972000,-1.842542
5384.973000,-1.823519
5387.973000,-1.822750
5390.973000,-1.820782
5393.971000,-1.825555
5396.971000,-1.824725
5399.971000,-1.816760
5402.971000,-1.811637
5405.972000,-1.813334
5408.972000,-1.825511
5411.970000,-1.815574
5414.970000,-1.810978
5417.970000,-1.813256
5420.970000,-1.801011
5423.971000,-1.793015
5426.969000,-1.798774
5429.969000,-1.797982
5432.969000,-1.793090
5435.969000,-1.805770
5438.969000,-1.797696
5441.967000,-1.792709
5444.968000,-1.792590
5447.968000,-1.785088
5450.968000,-1.786753
5453.968000,-1.790581
5456.968000,-1.776623
5459.966000,-1.785679
5462.967000,-1.776912
5465.967000,-1.786260
5468.967000,-1.779244
5471.967000,-1.766034
5474.965000,-1.776650
5477.965000,-1.769351
5480.966000,-1.765520
5483.965000,-1.763314
5486.965000,-1.758762
5489.965000,-1.767244
5492.965000,-1.753894
5495.965000,-1.756488
5498.963000,-1.749669
5501.964000,-1.743964
5504.964000,-1.742360
5507.964000,-1.741714
5510.964000,-1.756049
5513.962000,-1.744573
5516.962000,-1.754299
5519.962000,-1.742207
5522.963000,-1.752806
5525.963000,-1.738756
5528.963000,-1.729891
5531.961000,-1.731648
5534.961000,-1.740745
5537.961000,-1.728962
5540.962000,-1.740154
5543.962000,-1.729445
5546.960000,-1.721507
5549.960000,-1.731040
5552.960000,-1.737220
5555.960000,-1.724737
5558.960000,-1.721443
5561.959000,-1.718536
5564.959000,-1.731862
5567.959000,-1.730091
5570.959000,-1.719420
5573.959000,-1.727045
5576.959000,-1.716789
5579.958000,-1.713101
5582.958000,-1.730329
5585.958000,-1.725206
5588.958000,-1.711873
5591.958000,-1.709198
5594.956000,-1.719410
5597.956000,-1.725260
5600.957000,-1.712013
5603.957000,-1.726301
5606.957000,-1.721069
5609.955000,-1.719315
5612.955000,-1.719196
5615.955000,-1.722507
5618.956000,-1.720542
5621.956000,-1.722510
5624.954000,-1.729037
5627.954000,-1.729136
5630.954000,-1.730275
5633.954000,-1.714508
5636.954000,-1.728021
5639.955000,-1.715745
5642.953000,-1.718553
5645.953000,-1.720117
5648.953000,-1.724479
5651.953000,-1.721701
5654.953000,-1.723173
5657.952000,-1.717330
5660.952000,-1.728606
5663.952000,-1.735364
5666.952000,-1.730907
5669.952000,-1.721042
5672.950000,-1.735455
5675.950000,-1.721188
5678.951000,-1.725325
5681.951000,-1.740514
5684.951000,-1.734555
5687.951000,-1.727372
5690.949000,-1.739501
5693.949000,-1.740871
5696.950000,-1.728000
5699.950000,-1.732437
5702.950000,-1.746959
5705.948000,-1.749390
5708.948000,-1.749237
5711.948000,-1.751385
5714.948000,-1.753534
5717.949000,-1.748027
5720.947000,-1.754941
5723.947000,-1.754594
5726.947000,-1.742866
5729.947000,-1.750386
5732.947000,-1.745025
5735.948000,-1.760897
5738.946000,-1.766380
5741.946000,-1.770157
5744.946000,-1.770864
5747.946000,-1.767016
5750.946000,-1.771123
5753.945000,-1.773074
5756.945000,-1.775212
5759.945000,-1.780882
5762.945000,-1.772605
5765.945000,-1.777728
5768.943000,-1.781229
5771.943000,-1.779771
5774.944000,-1.782385
5777.944000,-1.777187
5780.944000,-1.780114
5783.942000,-1.777248
5786.942000,-1.774444
5789.942000,-1.791611
5792.943000,-1.788766
5795.943000,-1.781263
5798.943000,-1.785672
5801.941000,-1.802588
5804.941000,-1.786254
5807.941000,-1.789194
5810.941000,-1.810131
5813.942000,-1.795062
5816.940000,-1.797904
5819.940000,-1.813259
5822.940000,-1.806293
5825.940000,-1.805685
5828.940000,-1.819045
5831.939000,-1.822115
5834.939000,-1.822570
5837.939000,-1.822166
5840.939000,-1.826932
5843.939000,-1.830668
5846.939000,-1.825728
5849.937000,-1.831385
5852.938000,-1.833095
5855.938000,-1.819647
5858.938000,-1.820279
5861.938000,-1.841172
5864.936000,-1.837198
5867.937000,-1.842929
5870.938000,-1.844687
5873.936000,-1.842413
5876.936000,-1.848637
5879.936000,-1.849528
5882.936000,-1.853587
5885.936000,-1.856823
5888.934000,-1.852710
5891.935000,-1.851482
5894.935000,-1.853628
5897.935000,-1.862677
5900.935000,-1.862595
5903.934000,-1.862949
5906.934000,-1.863282
5909.935000,-1.866253
5912.933000,-1.866124
5915.933000,-1.855470
5918.933000,-1.855079
5921.933000,-1.870989
5924.933000,-1.859026
5927.931000,-1.857979
5930.932000,-1.872093
5933.932000,-1.873620
5936.932000,-1.872882
5939.932000,-1.875007
5942.932000,-1.872692
5945.930000,-1.874463
5948.931000,-1.877607
5951.931000,-1.873113
5954.931000,-1.872654
5957.931000,-1.872563
5960.929000,-1.872814
5963.929000,-1.875381
5966.929000,-1.882513
5969.930000,-1.874289
5972.930000,-1.864169
5975.928000,-1.875224
5978.928000,-1.869768
5981.928000,-1.862789
5984.928000,-1.862752
5987.929000,-1.858037
5990.927000,-1.868861
5993.927000,-1.874130
5996.927000,-1.860569
5999.927000,-1.855378
6002.927000,-1.862109
6005.927000,-1.857466
6008.926000,-1.859753
6011.926000,-1.871080
6014.926000,-1.867773
6017.926000,-1.852713
6020.926000,-1.852703
6023.924000,-1.852530
6026.925000,-1.854919
6029.925000,-1.862922
6032.925000,-1.856232
6035.925000,-1.842314
6038.923000,-1.848355
6041.923000,-1.851041
6044.923000,-1.845275
6047.924000,-1.854641
6050.924000,-1.840625
6053.924000,-1.849878
6056.923000,-1.851877
6059.923000,-1.829563
6062.921000,-1.850996
6065.922000,-1.842780
6068.922000,-1.822373
6071.922000,-1.826836
6074.922000,-1.821846
6077.922000,-1.831531
6080.920000,-1.838024
6083.921000,-1.823729
6086.921000,-1.837528
6089.921000,-1.827057
6092.921000,-1.814184
6095.919000,-1.827380
6098.919000,-1.825806
6101.919000,-1.814428
6104.920000,-1.821883
6107.920000,-1.809363
6110.918000,-1.819789
6113.918000,-1.805539
6116.918000,-1.815900
6119.918000,-1.803876
6122.919000,-1.805879
6125.917000,-1.791859
6128.917000,-1.806820
6131.917000,-1.794817
6134.917000,-1.780682
6137.917000,-1.797319
6140.917000,-1.783177
6143.916000,-1.782443
6146.916000,-1.798121
6149.916000,-1.783595
6152.916000,-1.783667
6155.916000,-1.786801
6158.914000,-1.771486
6161.915000,-1.772054
6164.915000,-1.782603
6167.915000,-1.766462
6170.915000,-1.777136
6173.913000,-1.781335
6176.913000,-1.774373
6179.913000,-1.765463
6182.914000,-1.779444
6185.914000,-1.762791
6188.914000,-1.766605
6191.912000,-1.769940
6194.912000,-1.752599
6197.912000,-1.760306
6200.913000,-1.769467
6203.913000,-1.763470
6206.911000,-1.742577
6209.911000,-1.752303
6212.911000,-1.747687
6215.911000,-1.751606
6218.911000,-1.748931
6221.910000,-1.750189
6224.910000,-1.758184
6227.910000,-1.754659
6230.910000,-1.747568
6233.910000,-1.734531
6236.908000,-1.733950
6239.909000,-1.749703
6242.909000,-1.750712
6245.909000,-1.737012
6248.909000,-1.739032
6251.909000,-1.739521
6254.907000,-1.732093
6257.907000,-1.739062
6260.908000,-1.721419
6263.908000,-1.724295
6266.908000,-1.728701
6269.906000,-1.720848
6272.906000,-1.731770
6275.906000,-1.728157
6278.907000,-1.723755
6281.907000,-1.737716
6284.907000,-1.729812
6287.905000,-1.719699
6290.905000,-1.730999
6293.905000,-1.729965
6296.905000,-1.728755
6299.906000,-1.713281
6302.904000,-1.729173
6305.904000,-1.731872
6308.905000,-1.717326
6311.903000,-1.718077
6314.903000,-1.728442
6317.904000,-1.717136
6320.904000,-1.727593
6323.904000,-1.716622
6326.902000,-1.725311
6329.902000,-1.722592
6332.902000,-1.723965
6335.902000,-1.729945
6338.903000,-1.723792
6341.901000,-1.715038
6344.901000,-1.731804
6347.901000,-1.721932
6350.901000,-1.716503
6353.901000,-1.714083
6356.900000,-1.710952
6359.900000,-1.733181
6362.900000,-1.730625
6365.900000,-1.725903
6368.900000,-1.736333
6371.900000,-1.736520
6374.898000,-1.735826
6377.899000,-1.721810
6380.899000,-1.723343
6383.899000,-1.740402
6386.899000,-1.740612
6389.897000,-1.742074
6392.897000,-1.740425
6395.898000,-1.736955
6398.898000,-1.740517
6401.898000,-1.745939
6404.896000,-1.750145
6407.896000,-1.735789
6410.896000,-1.732212
6413.896000,-1.756835
6416.897000,-1.760713
6419.897000,-1.760577
6422.895000,-1.743777
6425.895000,-1.760829
6428.895000,-1.760571
6431.895000,-1.747054
6434.896000,-1.756638
6437.894000,-1.766710
6440.894000,-1.761577
6443.894000,-1.767788
6446.894000,-1.764463
6449.894000,-1.771123
6452.892000,-1.776545
6455.893000,-1.769103
6458.893000,-1.767019
6461.893000,-1.781301
6464.893000,-1.781093
6467.891000,-1.765561
6470.891000,-1.775491
6473.892000,-1.781341
6476.892000,-1.783293
6479.892000,-1.773835
6482.891000,-1.781505
6485.891000,-1.784064
6488.891000,-1.786291
6491.890000,-1.783894
6494.890000,-1.791581
6497.890000,-1.793800
6500.890000,-1.790173
6503.890000,-1.796884
6506.890000,-1.801395
6509.888000,-1.797462
6512.889000,-1.789102
6515.889000,-1.802969
6518.889000,-1.807643
6521.889000,-1.810788
6524.887000,-1.811937
6527.887000,-1.812463
6530.888000,-1.807459
6533.888000,-1.801650
6536.888000,-1.804587
6539.886000,-1.821955
6542.886000,-1.821958
6545.886000,-1.820517
6548.886000,-1.822934
6551.887000,-1.815608
6554.887000,-1.810206
6557.885000,-1.825480
6560.885000,-1.822050
6563.885000,-1.823002
6566.885000,-1.832252
6569.886000,-1.827819
6572.884000,-1.823393
6575.884000,-1.833656
6578.884000,-1.822234
6581.884000,-1.828621
6584.884000,-1.832439
6587.882000,-1.826643
6590.883000,-1.827370
6593.883000,-1.838925
6596.882000,-1.826394
6599.882000,-1.817573
6602.882000,-1.839071
6605.882000,-1.830542
6608.883000,-1.819585
6611.881000,-1.822142
6614.881000,-1.830147
6617.881000,-1.841427
6620.881000,-1.842097
6623.881000,-1.836430
6626.879000,-1.826955
6629.880000,-1.834934
6632.880000,-1.839394
6635.880000,-1.823722
6638.880000,-1.836453
6641.880000,-1.841182
6644.880000,-1.822451
6647.879000,-1.823359
6650.879000,-1.822183
6653.879000,-1.820459
6656.879000,-1.820840
6659.877000,-1.822098
6662.877000,-1.833180
6665.877000,-1.831293
6668.878000,-1.820136
6671.878000,-1.835525
6674.878000,-1.834543
6677.876000,-1.824317
6680.876000,-1.816492
6683.876000,-1.830083
6686.876000,-1.819772
6689.876000,-1.828608
6692.876000,-1.816023
6695.876000,-1.821017
6698.876000,-1.825541
6701.874000,-1.815846
6704.874000,-1.813181
6707.875000,-1.821326
6710.875000,-1.805559
6713.875000,-1.818260
6716.873000,-1.817518
6719.873000,-1.794423
6722.873000,-1.792614
6725.874000,-1.810193
6728.874000,-1.798043
6731.872000,-1.791057
6734.872000,-1.806545
6737.872000,-1.783391
6740.872000,-1.803567
6743.872000,-1.785288
6746.871000,-1.798097
6749.871000,-1.789670
6752.871000,-1.795956
6755.871000,-1.781386
6758.871000,-1.795340
6761.871000,-1.781246
6764.870000,-1.781967
6767.870000,-1.783949
6770.870000,-1.779512
6773.870000,-1.777510
6776.870000,-1.772190
6779.868000,-1.781630
6782.868000,-1.766754
6785.869000,-1.777395
6788.869000,-1.771381
6791.869000,-1.771024
6794.867000,-1.774502
6797.867000,-1.760363
6800.867000,-1.774855
6803.868000,-1.753564
6806.868000,-1.750967
6809.868000,-1.764205
6812.866000,-1.767342
6815.866000,-1.753201
6818.866000,-1.760418
6821.866000,-1.759877
6824.867000,-1.752426
6827.865000,-1.742605
6830.865000,-1.752851
6833.865000,-1.756223
6836.865000,-1.744087
6839.864000,-1.757243
6842.865000,-1.740344
6845.865000,-1.740521
6848.865000,-1.738124
6851.863000,-1.758541
6854.863000,-1.756158
6857.863000,-1.748938
6860.864000,-1.736853
6863.864000,-1.752963
6866.862000,-1.751718
6869.862000,-1.740609
6872.862000,-1.739334
6875.862000,-1.746235
6878.862000,-1.745729
6881.861000,-1.743162
6884.861000,-1.740514
6887.861000,-1.736513
6890.861000,-1.740670
6893.861000,-1.749822
6896.861000,-1.740806
6899.860000,-1.730825
6902.860000,-1.740915
6905.860000,-1.750767
6908.860000,-1.750532
6911.860000,-1.750114
6914.858000,-1.750423
6917.858000,-1.752681
6920.859000,-1.750933
6923.859000,-1.748533
6926.859000,-1.742217
6929.857000,-1.753639
6932.857000,-1.741591
6935.857000,-1.749567
6938.858000,-1.757929
6941.858000,-1.759326
6944.856000,-1.760306
6947.856000,-1.745470
6950.856000,-1.747615
6953.856000,-1.747996
6956.856000,-1.756943
6959.857000,-1.752426
6962.855000,-1.740966
6965.855000,-1.741126
6968.855000,-1.757538
6971.855000,-1.765048
6974.855000,-1.754305
6977.854000,-1.761162
6980.854000,-1.754438
6983.854000,-1.767553
6986.853000,-1.771031
6989.853000,-1.768291
6992.853000,-1.758412
6995.853000,-1.763712
6998.854000,-1.775341
7001.852000,-1.771429
7004.852000,-1.766122
7007.852000,-1.763311
7010.852000,-1.772601
7013.852000,-1.778962
7016.851000,-1.771133
7019.851000,-1.773829
7022.851000,-1.779404
7025.851000,-1.758514
7028.851000,-1.763103
7031.851000,-1.778187
7034.849000,-1.772329
7037.850000,-1.767400
7040.850000,-1.779179
7043.850000,-1.787185
7046.850000,-1.775137
7049.848000,-1.781212
7052.848000,-1.787909
7055.849000,-1.778421
7058.849000,-1.787552
7061.849000,-1.778503
7064.847000,-1.782269
7067.847000,-1.793382
7070.847000,-1.789089
7073.847000,-1.792158
7076.848000,-1.791349
7079.848000,-1.790064
7082.846000,-1.788011
7085.846000,-1.791315
7088.846000,-1.799005
7091.846000,-1.801072
7094.847000,-1.801799
7097.845000,-1.792090
7100.846000,-1.784924
7103.846000,-1.803088
7106.844000,-1.801663
7109.844000,-1.800385
7112.844000,-1.807106
7115.845000,-1.803751
7118.845000,-1.801714
7121.843000,-1.807589
7124.843000,-1.811756
7127.843000,-1.811940
7130.843000,-1.811770
7133.844000,-1.811716
7136.842000,-1.813670
7139.842000,-1.812348
7142.842000,-1.807619
7145.842000,-1.799746
7148.842000,-1.794178
7151.842000,-1.811634
7154.841000,-1.820150
7157.842000,-1.813327
7160.840000,-1.811923
7163.840000,-1.811926
7166.840000,-1.812341
7169.840000,-1.821958
7172.841000,-1.818035
7175.841000,-1.804716
7178.840000,-1.813884
7181.840000,-1.822091
7184.838000,-1.822104
7187.838000,-1.822400
7190.838000,-1.821917
7193.839000,-1.807708
7196.839000,-1.816992
7199.837000,-1.825953
7202.837000,-1.824865
7205.838000,-1.826966
