Time(s),Position(V)
0.334000,1.555345
3.349000,1.564704
6.349000,1.576735
9.349000,1.591060
12.349000,1.568845
15.348000,1.551541
18.348000,1.559415
21.348000,1.572785
24.348000,1.586253
27.348000,1.558752
30.346000,1.565979
33.346000,1.586991
36.347000,1.577258
39.347000,1.545045
42.347000,1.544175
45.347000,1.585414
48.345000,1.560659
51.345000,1.537556
54.346000,1.550970
57.346000,1.553707
60.346000,1.542451
63.344000,1.542444
66.344000,1.544012
69.344000,1.536047
72.344000,1.519658
75.345000,1.506352
78.343000,1.523411
81.343000,1.486296
84.343000,1.473184
87.343000,1.444146
90.342000,1.423708
93.343000,1.402577
96.343000,1.376303
99.343000,1.347213
102.341000,1.317808
105.341000,1.285969
108.341000,1.251240
111.341000,1.214522
114.342000,1.173345
117.342000,1.134094
120.340000,1.088045
123.340000,1.043835
126.340000,0.996290
129.339000,0.944721
132.340000,0.891862
135.340000,0.839643
138.340000,0.781693
141.338000,0.727437
144.338000,0.669028
147.338000,0.607565
150.338000,0.547446
153.339000,0.483604
156.339000,0.418715
159.337000,0.353823
162.337000,0.290086
165.337000,0.221951
168.337000,0.154339
171.338000,0.087271
174.336000,0.016029
177.336000,-0.055047
180.336000,-0.126331
183.336000,-0.197396
186.336000,-0.273945
189.334000,-0.349947
192.335000,-0.426969
195.335000,-0.504687
198.335000,-0.586067
201.335000,-0.664125
204.335000,-0.745522
207.333000,-0.819909
210.334000,-0.901897
213.334000,-0.979918
216.334000,-1.059680
219.334000,-1.136175
222.332000,-1.213934
225.332000,-1.293740
228.332000,-1.374429
231.333000,-1.454983
234.333000,-1.540571
237.331000,-1.618222
240.331000,-1.696603
243.331000,-1.769742
246.331000,-1.838826
249.332000,-1.911534
252.332000,-1.988086
255.330000,-2.070109
258.330000,-2.154956
261.330000,-2.240853
264.330000,-2.317283
267.330000,-2.384593
270.329000,-2.450063
273.329000,-2.508785
276.329000,-2.572314
279.328000,-2.649550
282.328000,-2.728159
285.328000,-2.806289
288.329000,-2.871487
291.329000,-2.926854
294.327000,-2.983139
297.327000,-3.030490
300.327000,-3.087200
303.327000,-3.149179
306.328000,-3.217614
309.326000,-3.284094
312.326000,-3.341745
315.326000,-3.392125
318.326000,-3.431331
321.326000,-3.470054
324.324000,-3.510783
327.325000,-3.552780
330.325000,-3.598670
333.325000,-3.649362
336.324000,-3.702989
339.324000,-3.746692
342.324000,-3.782495
345.325000,-3.814505
348.323000,-3.843526
351.323000,-3.867060
354.323000,-3.884109
357.323000,-3.909282
360.323000,-3.926320
363.323000,-3.938051
366.322000,-3.957867
369.322000,-3.980351
372.322000,-3.996797
375.322000,-4.019890
378.322000,-4.032063
381.320000,-4.046753
384.321000,-4.059541
387.321000,-4.063937
390.321000,-4.075257
393.321000,-4.065943
396.319000,-4.066388
399.319000,-4.066418
402.319000,-4.059120
405.320000,-4.048378
408.320000,-4.030228
411.318000,-4.034001
414.318000,-4.008175
417.318000,-3.984610
420.318000,-3.973022
423.319000,-3.946186
426.319000,-3.949168
429.317000,-3.904767
432.317000,-3.894555
435.317000,-3.867013
438.317000,-3.856950
441.317000,-3.832695
444.316000,-3.813227
447.316000,-3.791361
450.316000,-3.773888
453.316000,-3.727839
456.316000,-3.694817
459.314000,-3.657229
462.315000,-3.616377
465.315000,-3.570355
468.315000,-3.525217
471.315000,-3.488109
474.315000,-3.443872
477.313000,-3.412763
480.313000,-3.377518
483.314000,-3.347704
486.314000,-3.307390
489.314000,-3.264203
492.312000,-3.211032
495.313000,-3.149485
498.313000,-3.090817
501.312000,-3.033247
504.312000,-2.986787
507.312000,-2.950967
510.312000,-2.898962
513.312000,-2.854742
516.310000,-2.808217
519.310000,-2.760254
522.311000,-2.697126
525.311000,-2.636336
528.311000,-2.570686
531.309000,-2.512450
534.309000,-2.460680
537.309000,-2.417772
540.310000,-2.376244
543.310000,-2.317236
546.308000,-2.264745
549.308000,-2.210840
552.308000,-2.150985
555.308000,-2.091111
558.308000,-2.029070
561.309000,-1.967673
564.307000,-1.910779
567.307000,-1.856966
570.307000,-1.802217
573.307000,-1.748258
576.307000,-1.706465
579.306000,-1.653525
582.307000,-1.602516
585.307000,-1.556358
588.305000,-1.500223
591.305000,-1.443958
594.305000,-1.402519
597.305000,-1.339449
600.306000,-1.282681
603.304000,-1.245681
606.304000,-1.189159
609.304000,-1.140257
612.304000,-1.093872
615.304000,-1.044617
618.303000,-0.998823
621.303000,-0.963030
624.303000,-0.916716
627.303000,-0.873733
630.303000,-0.838076
633.301000,-0.798166
636.301000,-0.762282
639.302000,-0.728664
642.302000,-0.691325
645.302000,-0.654546
648.302000,-0.619208
651.300000,-0.583276
654.300000,-0.550114
657.301000,-0.521358
660.301000,-0.494924
663.301000,-0.472841
666.299000,-0.445367
669.299000,-0.417885
672.299000,-0.383650
675.300000,-0.357331
678.299000,-0.340330
681.299000,-0.317635
684.299000,-0.299513
687.299000,-0.294451
690.297000,-0.279045
693.297000,-0.259107
696.298000,-0.257849
699.298000,-0.245645
702.297000,-0.217205
705.297000,-0.216155
708.297000,-0.206130
711.297000,-0.222705
714.296000,-0.198596
717.296000,-0.197543
720.296000,-0.187834
723.296000,-0.190183
726.296000,-0.193178
729.296000,-0.211929
732.294000,-0.220625
735.295000,-0.202387
738.294000,-0.213942
741.294000,-0.239723
744.294000,-0.256880
747.294000,-0.262513
750.294000,-0.275992
753.293000,-0.284854
756.293000,-0.304377
759.293000,-0.311132
762.293000,-0.331539
765.293000,-0.351548
768.291000,-0.370143
771.291000,-0.390425
774.292000,-0.409856
777.292000,-0.427958
780.292000,-0.450561
783.292000,-0.469778
786.290000,-0.499639
789.290000,-0.520417
792.291000,-0.549553
795.291000,-0.575644
798.291000,-0.604122
801.289000,-0.635682
804.289000,-0.664156
807.289000,-0.693619
810.289000,-0.723364
813.290000,-0.758209
816.290000,-0.788043
819.288000,-0.822129
822.288000,-0.855889
825.288000,-0.890026
828.288000,-0.919031
831.289000,-0.955843
834.287000,-0.987013
837.287000,-1.027936
840.287000,-1.061597
843.287000,-1.098413
846.287000,-1.135542
849.285000,-1.174221
852.286000,-1.212741
855.286000,-1.250400
858.286000,-1.293107
861.286000,-1.333714
864.286000,-1.372471
867.284000,-1.410899
870.285000,-1.454164
873.285000,-1.496351
876.285000,-1.537821
879.285000,-1.576690
882.284000,-1.617249
885.284000,-1.655568
888.282000,-1.696127
891.283000,-1.733916
894.283000,-1.772380
897.283000,-1.805627
900.283000,-1.842273
903.283000,-1.878029
906.281000,-1.917109
909.282000,-1.952239
912.282000,-1.989929
915.282000,-2.027269
918.282000,-2.066019
921.280000,-2.109699
924.280000,-2.146780
927.280000,-2.189154
930.281000,-2.227337
933.281000,-2.264959
936.279000,-2.301003
939.279000,-2.332200
942.279000,-2.363003
945.279000,-2.392218
948.280000,-2.421219
951.280000,-2.447962
954.279000,-2.471898
957.279000,-2.499957
960.277000,-2.524950
963.277000,-2.553067
966.277000,-2.577733
969.278000,-2.603800
972.278000,-2.630918
975.278000,-2.659970
978.276000,-2.685370
981.276000,-2.713916
984.276000,-2.740068
987.277000,-2.761960
990.277000,-2.784883
993.275000,-2.806616
996.275000,-2.823385
999.275000,-2.844438
1002.275000,-2.861847
1005.275000,-2.877436
1008.274000,-2.889617
1011.274000,-2.901967
1014.274000,-2.913848
1017.273000,-2.919175
1020.273000,-2.925274
1023.273000,-2.933565
1026.274000,-2.917740
1029.274000,-2.923292
1032.272000,-2.954937
1035.272000,-2.957191
1038.273000,-2.958537
1041.271000,-2.957446
1044.272000,-2.959221
1047.272000,-2.924373
1050.272000,-2.953924
1053.272000,-2.956430
1056.270000,-2.934643
1059.270000,-2.953153
1062.270000,-2.955240
1065.271000,-2.930675
1068.271000,-2.919321
1071.269000,-2.913168
1074.269000,-2.912519
1077.269000,-2.893400
1080.269000,-2.888260
1083.270000,-2.885337
1086.270000,-2.858022
1089.269000,-2.869591
1092.269000,-2.849717
1095.267000,-2.831897
1098.267000,-2.821016
1101.267000,-2.804110
1104.268000,-2.787296
1107.268000,-2.755437
1110.268000,-2.733340
1113.266000,-2.710326
1116.266000,-2.702402
1119.266000,-2.672772
1122.267000,-2.647871
1125.267000,-2.626961
1128.265000,-2.594571
1131.265000,-2.571485
1134.265000,-2.551211
1137.265000,-2.528791
1140.265000,-2.499192
1143.264000,-2.470837
1146.264000,-2.455495
1149.264000,-2.425621
1152.264000,-2.404891
1155.264000,-2.388448
1158.262000,-2.353036
1161.263000,-2.333084
1164.264000,-2.307462
1167.262000,-2.281100
1170.262000,-2.249621
1173.262000,-2.210105
1176.262000,-2.186425
1179.262000,-2.154001
1182.261000,-2.121498
1185.261000,-2.082218
1188.261000,-2.059220
1191.261000,-2.021850
1194.261000,-1.991445
1197.261000,-1.949880
1200.260000,-1.913516
1203.260000,-1.897450
1206.260000,-1.857353
1209.260000,-1.832221
1212.260000,-1.799124
1215.258000,-1.764830
1218.258000,-1.738355
1221.259000,-1.708253
1224.259000,-1.691548
1227.259000,-1.654511
1230.257000,-1.622277
1233.257000,-1.592569
1236.257000,-1.581320
1239.258000,-1.553081
1242.258000,-1.513107
1245.256000,-1.476036
1248.256000,-1.450621
1251.256000,-1.418660
1254.256000,-1.394065
1257.256000,-1.363126
1260.257000,-1.326704
1263.255000,-1.295633
1266.255000,-1.269563
1269.255000,-1.248017
1272.255000,-1.228025
1275.255000,-1.189856
1278.254000,-1.174850
1281.254000,-1.145323
1284.254000,-1.127251
1287.254000,-1.100630
1290.254000,-1.074287
1293.252000,-1.070031
1296.252000,-1.048373
1299.253000,-1.021453
1302.253000,-0.989753
1305.253000,-0.989848
1308.253000,-0.971019
1311.251000,-0.942490
1314.251000,-0.944353
1317.252000,-0.920411
1320.252000,-0.898450
1323.252000,-0.893552
1326.250000,-0.875939
1329.250000,-0.869409
1332.250000,-0.850423
1335.250000,-0.846320
1338.251000,-0.825474
1341.251000,-0.822962
1344.249000,-0.812940
1347.249000,-0.811706
1350.249000,-0.818621
1353.249000,-0.782026
1356.250000,-0.801933
1359.248000,-0.774734
1362.248000,-0.786802
1365.248000,-0.786962
1368.248000,-0.761476
1371.248000,-0.777147
1374.246000,-0.785173
1377.247000,-0.762689
1380.247000,-0.754174
1383.247000,-0.775448
1386.247000,-0.783559
1389.245000,-0.788192
1392.245000,-0.782189
1395.246000,-0.790480
1398.246000,-0.792550
1401.246000,-0.800549
1404.244000,-0.796630
1407.244000,-0.802514
1410.244000,-0.785425
1413.245000,-0.819834
1416.244000,-0.828857
1419.244000,-0.841941
1422.244000,-0.847805
1425.244000,-0.856358
1428.242000,-0.876211
1431.242000,-0.867583
1434.243000,-0.889156
1437.243000,-0.903023
1440.243000,-0.922413
1443.243000,-0.933162
1446.241000,-0.948898
1449.241000,-0.961952
1452.242000,-0.975543
1455.242000,-0.996086
1458.242000,-1.011258
1461.240000,-1.028143
1464.240000,-1.043237
1467.240000,-1.061166
1470.240000,-1.077660
1473.241000,-1.101483
1476.239000,-1.116720
1479.239000,-1.133955
1482.239000,-1.151598
1485.239000,-1.174266
1488.239000,-1.196532
1491.240000,-1.213975
1494.238000,-1.238277
1497.238000,-1.258066
1500.238000,-1.280893
1503.238000,-1.301841
1506.238000,-1.325355
1509.236000,-1.351452
1512.237000,-1.375670
1515.237000,-1.399799
1518.237000,-1.415128
1521.237000,-1.448306
1524.235000,-1.470947
1527.235000,-1.497167
1530.236000,-1.523302
1533.236000,-1.546241
1536.236000,-1.572071
1539.234000,-1.595486
1542.234000,-1.616981
1545.234000,-1.643673
1548.234000,-1.666280
1551.235000,-1.692262
1554.235000,-1.709949
1557.233000,-1.737101
1560.233000,-1.755431
1563.233000,-1.776089
1566.233000,-1.801735
1569.234000,-1.820190
1572.232000,-1.844408
1575.232000,-1.861392
1578.232000,-1.886208
1581.232000,-1.904215
1584.232000,-1.926373
1587.232000,-1.947823
1590.231000,-1.972483
1593.231000,-1.991513
1596.231000,-2.012841
1599.231000,-2.035645
1602.231000,-2.058336
1605.229000,-2.080038
1608.230000,-2.101754
1611.230000,-2.121726
1614.230000,-2.144802
1617.230000,-2.163679
1620.228000,-2.185432
1623.228000,-2.203306
1626.228000,-2.223917
1629.229000,-2.241210
1632.229000,-2.259727
1635.227000,-2.275810
1638.227000,-2.290173
1641.227000,-2.305810
1644.227000,-2.317328
1647.228000,-2.329753
1650.228000,-2.345982
1653.226000,-2.352767
1656.226000,-2.366402
1659.225000,-2.380561
1662.225000,-2.388410
1665.225000,-2.397620
1668.226000,-2.402341
1671.226000,-2.411476
1674.226000,-2.396107
1677.224000,-2.422412
1680.224000,-2.430798
1683.224000,-2.436387
1686.225000,-2.440514
1689.225000,-2.447187
1692.223000,-2.423867
1695.223000,-2.445175
1698.223000,-2.450529
1701.223000,-2.457838
1704.223000,-2.464531
1707.222000,-2.464280
1710.222000,-2.466350
1713.222000,-2.461764
1716.222000,-2.443978
1719.222000,-2.436632
1722.222000,-2.451001
1725.221000,-2.450964
1728.221000,-2.433946
1731.221000,-2.434126
1734.221000,-2.429836
1737.221000,-2.427725
1740.219000,-2.418931
1743.219000,-2.416310
1746.220000,-2.413777
1749.220000,-2.400339
1752.220000,-2.398670
1755.218000,-2.399673
1758.218000,-2.373320
1761.218000,-2.372712
1764.219000,-2.362530
1767.219000,-2.357129
1770.217000,-2.356639
1773.217000,-2.365699
1776.218000,-2.332659
1779.216000,-2.321635
1782.217000,-2.307306
1785.217000,-2.299480
1788.217000,-2.283693
1791.217000,-2.266098
1794.215000,-2.261556
1797.215000,-2.242322
1800.215000,-2.228411
1803.216000,-2.204122
1806.216000,-2.192469
1809.216000,-2.177838
1812.215000,-2.160786
1815.215000,-2.151267
1818.213000,-2.119870
1821.214000,-2.115906
1824.214000,-2.082452
1827.214000,-2.079447
1830.214000,-2.052768
1833.214000,-2.039143
1836.212000,-2.015357
1839.212000,-1.989123
1842.213000,-1.965701
1845.213000,-1.959592
1848.213000,-1.940783
1851.211000,-1.920685
1854.211000,-1.897079
1857.211000,-1.881340
1860.212000,-1.868391
1863.212000,-1.842593
1866.210000,-1.829502
1869.210000,-1.807470
1872.210000,-1.789490
1875.210000,-1.771891
1878.210000,-1.752606
1881.209000,-1.736363
1884.209000,-1.735177
1887.209000,-1.706203
1890.209000,-1.683053
1893.209000,-1.671131
1896.209000,-1.652407
1899.208000,-1.641685
1902.208000,-1.620877
1905.208000,-1.611661
1908.208000,-1.602428
1911.208000,-1.574409
1914.206000,-1.554971
1917.206000,-1.533092
1920.207000,-1.513467
1923.207000,-1.508300
1926.207000,-1.482889
1929.205000,-1.463315
1932.205000,-1.448014
1935.205000,-1.451278
1938.206000,-1.420461
1941.206000,-1.386909
1944.206000,-1.392990
1947.204000,-1.379236
1950.204000,-1.355236
1953.204000,-1.346282
1956.204000,-1.331667
1959.205000,-1.308697
1962.203000,-1.297601
1965.203000,-1.304883
1968.203000,-1.279418
1971.203000,-1.279040
1974.203000,-1.262482
1977.202000,-1.254530
1980.202000,-1.239284
1983.202000,-1.229701
1986.202000,-1.234470
1989.202000,-1.211228
1992.200000,-1.205241
1995.200000,-1.196552
1998.201000,-1.191001
2001.201000,-1.182931
2004.201000,-1.182074
2007.201000,-1.165835
2010.199000,-1.169578
2013.199000,-1.162935
2016.200000,-1.159220
2019.200000,-1.158910
2022.200000,-1.154301
2025.198000,-1.159230
2028.198000,-1.154202
2031.198000,-1.168024
2034.198000,-1.183254
2037.199000,-1.156558
2040.197000,-1.160178
2043.197000,-1.193762
2046.197000,-1.198956
2049.197000,-1.185606
2052.197000,-1.170883
2055.198000,-1.161320
2058.196000,-1.189437
2061.196000,-1.211830
2064.195000,-1.212782
2067.195000,-1.212397
2070.195000,-1.220916
2073.195000,-1.227647
2076.196000,-1.238366
2079.196000,-1.249604
2082.194000,-1.251709
2085.194000,-1.258739
2088.194000,-1.263281
2091.194000,-1.286043
2094.195000,-1.287597
2097.193000,-1.295718
2100.193000,-1.312097
2103.193000,-1.324076
2106.193000,-1.335050
2109.193000,-1.333762
2112.191000,-1.328244
2115.192000,-1.371380
2118.192000,-1.377088
2121.192000,-1.396159
2124.192000,-1.409624
2127.192000,-1.419251
2130.190000,-1.435103
2133.191000,-1.453834
2136.191000,-1.463019
2139.191000,-1.484868
2142.191000,-1.496001
2145.189000,-1.515303
2148.189000,-1.530635
2151.190000,-1.542771
2154.189000,-1.563365
2157.189000,-1.579107
2160.189000,-1.592015
2163.189000,-1.610145
2166.189000,-1.625836
2169.187000,-1.641977
2172.188000,-1.659348
2175.188000,-1.676482
2178.188000,-1.690691
2181.188000,-1.704466
2184.186000,-1.727582
2187.186000,-1.741483
2190.187000,-1.755118
2193.187000,-1.775946
2196.187000,-1.787964
2199.187000,-1.801245
2202.185000,-1.817831
2205.185000,-1.831949
2208.185000,-1.849133
2211.186000,-1.865403
2214.186000,-1.883216
2217.184000,-1.893969
2220.184000,-1.910524
2223.184000,-1.929381
2226.184000,-1.944029
2229.185000,-1.956692
2232.183000,-1.975430
2235.183000,-1.986040
2238.183000,-2.004278
2241.183000,-2.021666
2244.183000,-2.034628
2247.181000,-2.051279
2250.182000,-2.065213
2253.183000,-2.083676
2256.181000,-2.099582
2259.181000,-2.110076
2262.181000,-2.126037
2265.181000,-2.139604
2268.182000,-2.149663
2271.180000,-2.167252
2274.180000,-2.182549
2277.180000,-2.193098
2280.180000,-2.180027
2283.180000,-2.204496
2286.180000,-2.227827
2289.179000,-2.235934
2292.179000,-2.247435
2295.179000,-2.256144
2298.179000,-2.267444
2301.179000,-2.275725
2304.177000,-2.282351
2307.178000,-2.292185
2310.178000,-2.279118
2313.178000,-2.295479
2316.177000,-2.311266
2319.177000,-2.318150
2322.177000,-2.319649
2325.177000,-2.301751
2328.176000,-2.310926
2331.176000,-2.332724
2334.176000,-2.339438
2337.176000,-2.342052
2340.176000,-2.341913
2343.174000,-2.346209
2346.175000,-2.334437
2349.175000,-2.314353
2352.175000,-2.332782
2355.175000,-2.351839
2358.173000,-2.347906
2361.173000,-2.352424
2364.173000,-2.342684
2367.173000,-2.317545
2370.173000,-2.323460
2373.173000,-2.341542
2376.173000,-2.323851
2379.173000,-2.303988
2382.171000,-2.302010
2385.172000,-2.307058
2388.172000,-2.293899
2391.172000,-2.290302
2394.172000,-2.280960
2397.172000,-2.279053
2400.170000,-2.271010
2403.170000,-2.268624
2406.171000,-2.266054
2409.171000,-2.259642
2412.171000,-2.247853
2415.169000,-2.236077
2418.169000,-2.225342
2421.169000,-2.216646
2424.170000,-2.205720
2427.170000,-2.197697
2430.168000,-2.186884
2433.168000,-2.179619
2436.168000,-2.164559
2439.168000,-2.151213
2442.168000,-2.141525
2445.169000,-2.126553
2448.167000,-2.112055
2451.167000,-2.104358
2454.167000,-2.088833
2457.167000,-2.098569
2460.167000,-2.055841
2463.166000,-2.047254
2466.166000,-2.031382
2469.166000,-2.022516
2472.166000,-1.998774
2475.166000,-1.993984
2478.164000,-1.975774
2481.164000,-1.961186
2484.165000,-1.952919
2487.165000,-1.936245
2490.165000,-1.920767
2493.163000,-1.904949
2496.163000,-1.888574
2499.163000,-1.874238
2502.164000,-1.862048
2505.164000,-1.854651
2508.164000,-1.840356
2511.162000,-1.815948
2514.162000,-1.818219
2517.162000,-1.786277
2520.162000,-1.777867
2523.163000,-1.768080
2526.161000,-1.743975
2529.161000,-1.751691
2532.161000,-1.728357
2535.161000,-1.710860
2538.161000,-1.700822
2541.160000,-1.684294
2544.160000,-1.673412
2547.160000,-1.660154
2550.160000,-1.646203
2553.160000,-1.624137
2556.160000,-1.621166
2559.159000,-1.611878
2562.159000,-1.621811
2565.159000,-1.584543
2568.159000,-1.573614
2571.159000,-1.558724
2574.157000,-1.536199
2577.157000,-1.526698
2580.158000,-1.516343
2583.158000,-1.496793
2586.157000,-1.486217
2589.157000,-1.467826
2592.157000,-1.455972
2595.157000,-1.444441
2598.156000,-1.442221
2601.156000,-1.426271
2604.156000,-1.413849
2607.156000,-1.411745
2610.156000,-1.391277
2613.154000,-1.381738
2616.154000,-1.372294
2619.155000,-1.362548
2622.155000,-1.352877
2625.155000,-1.343338
2628.153000,-1.333201
2631.153000,-1.323267
2634.153000,-1.326606
2637.154000,-1.318297
2640.154000,-1.299679
2643.154000,-1.301416
2646.152000,-1.292863
2649.152000,-1.289273
2652.152000,-1.279982
2655.152000,-1.296881
2658.153000,-1.283834
2661.151000,-1.274193
2664.151000,-1.291992
2667.151000,-1.273387
2670.151000,-1.254330
2673.151000,-1.272459
2676.150000,-1.280563
2679.150000,-1.281522
2682.150000,-1.273040
2685.150000,-1.258797
2688.150000,-1.240341
2691.150000,-1.249105
2694.148000,-1.274730
2697.149000,-1.271453
2700.149000,-1.242540
2703.149000,-1.251257
2706.149000,-1.283351
2709.147000,-1.268543
2712.147000,-1.252980
2715.148000,-1.272469
2718.148000,-1.291829
2721.148000,-1.291710
2724.146000,-1.284840
2727.146000,-1.296755
2730.146000,-1.310366
2733.146000,-1.314925
2736.147000,-1.321085
2739.145000,-1.320106
2742.145000,-1.331270
2745.145000,-1.338939
2748.145000,-1.341264
2751.145000,-1.344385
2754.146000,-1.355783
2757.144000,-1.364955
2760.144000,-1.374858
2763.144000,-1.383132
2766.144000,-1.383659
2769.144000,-1.393205
2772.142000,-1.403362
2775.143000,-1.416365
2778.143000,-1.422165
2781.143000,-1.432798
2784.143000,-1.450213
2787.141000,-1.455568
2790.141000,-1.472674
2793.142000,-1.479017
2796.142000,-1.488763
2799.142000,-1.498550
2802.142000,-1.516765
2805.140000,-1.529316
2808.140000,-1.538192
2811.140000,-1.527735
2814.141000,-1.556229
2817.140000,-1.576204
2820.140000,-1.585213
2823.140000,-1.594385
2826.138000,-1.609193
2829.138000,-1.623110
2832.139000,-1.624184
2835.139000,-1.639302
2838.139000,-1.652760
2841.139000,-1.666793
2844.137000,-1.682230
2847.137000,-1.697783
2850.137000,-1.701862
2853.138000,-1.711499
2856.138000,-1.729578
2859.136000,-1.739321
2862.136000,-1.740262
2865.136000,-1.761703
2868.136000,-1.773495
2871.137000,-1.778499
2874.135000,-1.790873
2877.135000,-1.802602
2880.135000,-1.807296
2883.135000,-1.816519
2886.135000,-1.823682
2889.135000,-1.848042
2892.134000,-1.859733
2895.134000,-1.863979
2898.134000,-1.865495
2901.134000,-1.889084
2904.134000,-1.886874
2907.132000,-1.905959
2910.133000,-1.920254
2913.133000,-1.928524
2916.133000,-1.938410
2919.133000,-1.945940
2922.131000,-1.948673
2925.131000,-1.958028
2928.132000,-1.972513
2931.132000,-1.982664
2934.132000,-1.990762
2937.130000,-1.989133
2940.130000,-2.006671
2943.130000,-2.008289
2946.130000,-2.022414
2949.131000,-2.027054
2952.131000,-2.036882
2955.129000,-2.038990
2958.129000,-2.049620
2961.129000,-2.060515
2964.129000,-2.066937
2967.130000,-2.060352
2970.128000,-2.069422
2973.128000,-2.083394
2976.128000,-2.067022
2979.128000,-2.081487
2982.128000,-2.088938
2985.126000,-2.091270
2988.128000,-2.107170
2991.128000,-2.107730
2994.128000,-2.103002
2997.126000,-2.088982
3000.126000,-2.092287
3003.126000,-2.108669
3006.127000,-2.118667
3009.127000,-2.110423
3012.125000,-2.102101
3015.125000,-2.107350
3018.125000,-2.107676
3021.125000,-2.107812
3024.125000,-2.113302
3027.124000,-2.117888
3030.124000,-2.110532
3033.124000,-2.091396
3036.124000,-2.082241
3039.124000,-2.102947
3042.122000,-2.107928
3045.123000,-2.107044
3048.123000,-2.079229
3051.123000,-2.072468
3054.123000,-2.066373
3057.123000,-2.066689
3060.121000,-2.061559
3063.121000,-2.052724
3066.122000,-2.055760
3069.122000,-2.045469
3072.122000,-2.046326
3075.120000,-2.039966
3078.120000,-2.031107
3081.119000,-2.030451
3084.120000,-2.016030
3087.120000,-2.025504
3090.120000,-2.007304
3093.120000,-2.015272
3096.120000,-2.015649
3099.118000,-1.985656
3102.118000,-1.981801
3105.119000,-1.975865
3108.119000,-1.969270
3111.119000,-1.957111
3114.117000,-1.950468
3117.117000,-1.938614
3120.117000,-1.938689
3123.118000,-1.927964
3126.118000,-1.913682
3129.116000,-1.909868
3132.116000,-1.902168
3135.116000,-1.881299
3138.116000,-1.899323
3141.116000,-1.878297
3144.117000,-1.857241
3147.115000,-1.872202
3150.115000,-1.849470
3153.115000,-1.857850
3156.115000,-1.836137
3159.115000,-1.822162
3162.114000,-1.813432
3165.114000,-1.799032
3168.114000,-1.793083
3171.114000,-1.783381
3174.114000,-1.792118
3177.112000,-1.763681
3180.112000,-1.755788
3183.113000,-1.750274
3186.113000,-1.740714
3189.113000,-1.731777
3192.111000,-1.725186
3195.111000,-1.720341
3198.111000,-1.703215
3201.112000,-1.696198
3204.112000,-1.692830
3207.112000,-1.680238
3210.110000,-1.669248
3213.110000,-1.663608
3216.110000,-1.653624
3219.110000,-1.638826
3222.111000,-1.637888
3225.109000,-1.621716
3228.109000,-1.615013
3231.109000,-1.603325
3234.109000,-1.608013
3237.109000,-1.600065
3240.108000,-1.578057
3243.108000,-1.579549
3246.108000,-1.566339
3249.108000,-1.561563
3252.108000,-1.548937
3255.108000,-1.538168
3258.106000,-1.530451
3261.107000,-1.520236
3264.107000,-1.515847
3267.107000,-1.513858
3270.107000,-1.512815
3273.105000,-1.490936
3276.105000,-1.493866
3279.106000,-1.485860
3282.106000,-1.478912
3285.106000,-1.482825
3288.104000,-1.468741
3291.104000,-1.494033
3294.104000,-1.476389
3297.105000,-1.451502
3300.105000,-1.486153
3303.105000,-1.455625
3306.103000,-1.449476
3309.103000,-1.463101
3312.103000,-1.465256
3315.103000,-1.437415
3318.104000,-1.430418
3321.102000,-1.453106
3324.103000,-1.453460
3327.101000,-1.426067
3330.101000,-1.421964
3333.101000,-1.446178
3336.102000,-1.444302
3339.102000,-1.431608
3342.102000,-1.409073
3345.100000,-1.429069
3348.100000,-1.439060
3351.100000,-1.419064
3354.100000,-1.420098
3357.101000,-1.444710
3360.099000,-1.436197
3363.099000,-1.437353
3366.099000,-1.443935
3369.099000,-1.451216
3372.099000,-1.439155
3375.098000,-1.418819
3378.098000,-1.445308
3381.098000,-1.455187
3384.098000,-1.448721
3387.098000,-1.441497
3390.098000,-1.456421
3393.096000,-1.465423
3396.097000,-1.468788
3399.097000,-1.456013
3402.097000,-1.470712
3405.097000,-1.476039
3408.095000,-1.467507
3411.095000,-1.492571
3414.096000,-1.472956
3417.096000,-1.470841
3420.096000,-1.505931
3423.094000,-1.510115
3426.094000,-1.511268
3429.094000,-1.498193
3432.094000,-1.525314
3435.095000,-1.533310
3438.093000,-1.509894
3441.093000,-1.512424
3444.093000,-1.544328
3447.093000,-1.550093
3450.093000,-1.562335
3453.094000,-1.571258
3456.092000,-1.573706
3459.092000,-1.570092
3462.092000,-1.589085
3465.092000,-1.594238
3468.092000,-1.601265
3471.090000,-1.603155
3474.091000,-1.608734
3477.091000,-1.619245
3480.091000,-1.620520
3483.091000,-1.633298
3486.089000,-1.638639
3489.089000,-1.654072
3492.090000,-1.663135
3495.090000,-1.662000
3498.090000,-1.665987
3501.090000,-1.688074
3504.088000,-1.681656
3507.088000,-1.692925
3510.088000,-1.703888
3513.089000,-1.713288
3516.089000,-1.718628
3519.087000,-1.731417
3522.087000,-1.740310
3525.087000,-1.731369
3528.087000,-1.744811
3531.088000,-1.760241
3534.086000,-1.763056
3537.086000,-1.753007
3540.086000,-1.749828
3543.086000,-1.780767
3546.086000,-1.789663
3549.086000,-1.789337
3552.085000,-1.781549
3555.085000,-1.804821
3558.085000,-1.805199
3561.085000,-1.820000
3564.085000,-1.822805
3567.083000,-1.823756
3570.084000,-1.835022
3573.084000,-1.841182
3576.084000,-1.848974
3579.084000,-1.835077
3582.082000,-1.857466
3585.082000,-1.847600
3588.083000,-1.837956
3591.083000,-1.875438
3594.083000,-1.879137
3597.081000,-1.883495
3600.081000,-1.890804
3603.082000,-1.871172
3606.080000,-1.876363
3609.081000,-1.903736
3612.081000,-1.891803
3615.081000,-1.875843
3618.081000,-1.888118
3621.079000,-1.910416
3624.079000,-1.890111
3627.079000,-1.883138
3630.080000,-1.921236
3633.080000,-1.920325
3636.080000,-1.923367
3639.078000,-1.933613
3642.078000,-1.935153
3645.078000,-1.935667
3648.079000,-1.939501
3651.079000,-1.939824
3654.077000,-1.943781
3657.077000,-1.925795
3660.077000,-1.910106
3663.077000,-1.934545
3666.078000,-1.944505
3669.078000,-1.941555
3672.076000,-1.937533
3675.076000,-1.944172
3678.076000,-1.919428
3681.076000,-1.923384
3684.076000,-1.934762
3687.075000,-1.907145
3690.075000,-1.942489
3693.075000,-1.941969
3696.074000,-1.930605
3699.074000,-1.903151
3702.074000,-1.910433
3705.075000,-1.936398
3708.074000,-1.918839
3711.074000,-1.894516
3714.074000,-1.898018
3717.072000,-1.897987
3720.072000,-1.890940
3723.072000,-1.883907
3726.073000,-1.888982
3729.073000,-1.882924
3732.073000,-1.874905
3735.071000,-1.882890
3738.071000,-1.873385
3741.071000,-1.863840
3744.072000,-1.888418
3747.072000,-1.902512
3750.070000,-1.876139
3753.070000,-1.853679
3756.070000,-1.851965
3759.070000,-1.849470
3762.070000,-1.844986
3765.069000,-1.864802
3768.069000,-1.846608
3771.069000,-1.827642
3774.069000,-1.816672
3777.069000,-1.816043
3780.069000,-1.824572
3783.068000,-1.806623
3786.068000,-1.804237
3789.068000,-1.821387
3792.068000,-1.803570
3795.068000,-1.798549
3798.066000,-1.788042
3801.066000,-1.775103
3804.067000,-1.777109
3807.067000,-1.769039
3810.067000,-1.769848
3813.065000,-1.754292
3816.065000,-1.763875
3819.065000,-1.780420
3822.066000,-1.751457
3825.066000,-1.749893
3828.065000,-1.755043
3831.065000,-1.736982
3834.065000,-1.738818
3837.063000,-1.730598
3840.063000,-1.723248
3843.064000,-1.724105
3846.064000,-1.715361
3849.064000,-1.686102
3852.062000,-1.713121
3855.062000,-1.718968
3858.062000,-1.674972
3861.063000,-1.708355
3864.063000,-1.690266
3867.063000,-1.659970
3870.061000,-1.665185
3873.061000,-1.673245
3876.060000,-1.654980
3879.060000,-1.652570
3882.061000,-1.648739
3885.061000,-1.645013
3888.061000,-1.636259
3891.061000,-1.630137
3894.059000,-1.658556
3897.059000,-1.636946
3900.060000,-1.599195
3903.060000,-1.605453
3906.060000,-1.613534
3909.058000,-1.610474
3912.058000,-1.598573
3915.058000,-1.607554
3918.058000,-1.596200
3921.059000,-1.580532
3924.057000,-1.573114
3927.057000,-1.595799
3930.057000,-1.593865
3933.057000,-1.571945
3936.057000,-1.597682
3939.056000,-1.583578
3942.056000,-1.557222
3945.056000,-1.569565
3948.056000,-1.560349
3951.056000,-1.544457
3954.056000,-1.576000
3957.054000,-1.568875
3960.055000,-1.538022
3963.055000,-1.523672
3966.055000,-1.544025
3969.055000,-1.546541
3972.053000,-1.533279
3975.053000,-1.513481
3978.054000,-1.528381
3981.054000,-1.535764
3984.054000,-1.527793
3987.052000,-1.510105
3990.052000,-1.513596
3993.052000,-1.535506
3996.052000,-1.534122
3999.053000,-1.516190
4002.053000,-1.483926
4005.051000,-1.507719
4008.051000,-1.531937
4011.051000,-1.494661
4014.051000,-1.529870
4017.052000,-1.532321
4020.050000,-1.526718
4023.050000,-1.521381
4026.050000,-1.513389
4029.050000,-1.492591
4032.050000,-1.511666
4035.048000,-1.534020
4038.049000,-1.526970
4041.049000,-1.526378
4044.049000,-1.528116
4047.049000,-1.535339
4050.047000,-1.528707
4053.047000,-1.502402
4056.048000,-1.532273
4059.048000,-1.512954
4062.048000,-1.516513
4065.048000,-1.540993
4068.046000,-1.539252
4071.046000,-1.536563
4074.047000,-1.549464
4077.047000,-1.551925
4080.047000,-1.556127
4083.046000,-1.515555
4086.046000,-1.552615
4089.046000,-1.559340
4092.044000,-1.560200
4095.045000,-1.574739
4098.045000,-1.572682
4101.045000,-1.580919
4104.045000,-1.582544
4107.043000,-1.579481
4110.043000,-1.575181
4113.044000,-1.588755
4116.044000,-1.595442
4119.044000,-1.602438
4122.042000,-1.587389
4125.042000,-1.592950
4128.042000,-1.618834
4131.042000,-1.611304
4134.043000,-1.607809
4137.043000,-1.630280
4140.041000,-1.635362
4143.041000,-1.629052
4146.041000,-1.630375
4149.041000,-1.651431
4152.042000,-1.652090
4155.040000,-1.656282
4158.040000,-1.663727
4161.040000,-1.677274
4164.040000,-1.682298
4167.040000,-1.691511
4170.038000,-1.695852
4173.039000,-1.678127
4176.039000,-1.674823
4179.038000,-1.705268
4182.038000,-1.712363
4185.038000,-1.723190
4188.038000,-1.733538
4191.039000,-1.733412
4194.038000,-1.705197
4197.038000,-1.733528
4200.038000,-1.755254
4203.036000,-1.755485
4206.036000,-1.761111
4209.036000,-1.743791
4212.037000,-1.756981
4215.037000,-1.753748
4218.035000,-1.767410
4221.035000,-1.791547
4224.035000,-1.793957
4227.035000,-1.800263
4230.036000,-1.797751
4233.034000,-1.812786
4236.034000,-1.821584
4239.034000,-1.824576
4242.034000,-1.822135
4245.034000,-1.836127
4248.034000,-1.832095
4251.033000,-1.847257
4254.033000,-1.830729
4257.033000,-1.825694
4260.033000,-1.856806
4263.033000,-1.862826
4266.031000,-1.872280
4269.032000,-1.873025
4272.032000,-1.884767
4275.032000,-1.882645
4278.032000,-1.864162
4281.030000,-1.891396
4284.030000,-1.898072
4287.030000,-1.899343
4290.031000,-1.896328
4293.031000,-1.911609
4296.031000,-1.914447
4299.029000,-1.923476
4302.029000,-1.925115
4305.029000,-1.930173
4308.030000,-1.924078
4311.030000,-1.935905
4314.028000,-1.937468
4317.028000,-1.937349
4320.028000,-1.944543
4323.028000,-1.950240
4326.028000,-1.945981
4329.027000,-1.952086
4332.027000,-1.931890
4335.027000,-1.934728
4338.027000,-1.954112
4341.027000,-1.963128
4344.026000,-1.947629
4347.027000,-1.934069
4350.027000,-1.965341
4353.025000,-1.960201
4356.025000,-1.950856
4359.025000,-1.942299
4362.025000,-1.936211
4365.025000,-1.951076
4368.024000,-1.967030
4371.024000,-1.958161
4374.024000,-1.941313
4377.024000,-1.940202
4380.024000,-1.940790
4383.024000,-1.939243
4386.023000,-1.929942
4389.023000,-1.933165
4392.023000,-1.937237
4395.023000,-1.928011
4398.023000,-1.937727
4401.021000,-1.940865
4404.022000,-1.928368
4407.022000,-1.916643
4410.022000,-1.937985
4413.022000,-1.948473
4416.020000,-1.928728
4419.020000,-1.907370
4422.020000,-1.924350
4425.021000,-1.917432
4428.021000,-1.901557
4431.019000,-1.893983
4434.019000,-1.894037
4437.019000,-1.886490
4440.019000,-1.882492
4443.020000,-1.876696
4446.020000,-1.871842
4449.018000,-1.877856
4452.018000,-1.870625
4455.018000,-1.860073
4458.018000,-1.865804
4461.018000,-1.853866
4464.017000,-1.840696
4467.017000,-1.860539
4470.017000,-1.864591
4473.017000,-1.832544
4476.017000,-1.821108
4479.015000,-1.822308
4482.017000,-1.809401
4485.017000,-1.809180
4488.015000,-1.821530
4491.015000,-1.795667
4494.015000,-1.797924
4497.015000,-1.784421
4500.015000,-1.779230
4503.016000,-1.773203
4506.014000,-1.763069
4509.014000,-1.756651
4512.014000,-1.760353
4515.014000,-1.750964
4518.014000,-1.747364
4521.013000,-1.747374
4524.013000,-1.734238
4527.013000,-1.761777
4530.013000,-1.728048
4533.013000,-1.722419
4536.011000,-1.729901
4539.011000,-1.705833
4542.012000,-1.704588
4545.012000,-1.718482
4548.012000,-1.698429
4551.010000,-1.697936
4554.010000,-1.678494
4557.011000,-1.676635
4560.010000,-1.669142
4563.010000,-1.662272
4566.010000,-1.658706
4569.010000,-1.659172
4572.010000,-1.650670
4575.008000,-1.648664
4578.008000,-1.640587
4581.009000,-1.640770
4584.009000,-1.631279
4587.009000,-1.629423
4590.009000,-1.624732
4593.007000,-1.623032
4596.008000,-1.622967
4599.007000,-1.611470
4602.007000,-1.625395
4605.007000,-1.616056
4608.007000,-1.607734
4611.007000,-1.627597
4614.007000,-1.620819
4617.005000,-1.599205
4620.006000,-1.602842
4623.006000,-1.597635
4626.006000,-1.597733
4629.006000,-1.590400
4632.004000,-1.607826
4635.004000,-1.599453
4638.005000,-1.591101
4641.005000,-1.595833
4644.005000,-1.576690
4647.003000,-1.585794
4650.003000,-1.592804
4653.003000,-1.582357
4656.003000,-1.574987
4659.004000,-1.592648
4662.002000,-1.574647
4665.002000,-1.574392
4668.002000,-1.566597
4671.002000,-1.586104
4674.002000,-1.583676
4677.003000,-1.568505
4680.001000,-1.569688
4683.001000,-1.577360
4686.001000,-1.587028
4689.001000,-1.589690
4692.001000,-1.586076
4694.999000,-1.579730
4698.000000,-1.587650
4701.000000,-1.598933
4704.000000,-1.581494
4707.000000,-1.586892
4709.998000,-1.605684
4712.998000,-1.607955
4715.999000,-1.598899
4718.999000,-1.597094
4721.999000,-1.609030
4724.999000,-1.614282
4727.997000,-1.612613
4730.997000,-1.607721
4733.997000,-1.616298
4736.998000,-1.621050
4739.998000,-1.614329
4742.996000,-1.620482
4745.996000,-1.622345
4748.996000,-1.609210
4751.996000,-1.637653
4754.997000,-1.644241
4757.995000,-1.643313
4760.995000,-1.629933
4763.995000,-1.642259
4766.995000,-1.658427
4769.995000,-1.631384
4772.996000,-1.655276
4775.994000,-1.661153
4778.994000,-1.673864
4781.994000,-1.679266
4784.994000,-1.678464
4787.994000,-1.655337
4790.992000,-1.662700
4793.993000,-1.688771
4796.993000,-1.654086
4799.993000,-1.682142
4802.993000,-1.701811
4805.991000,-1.700859
4808.991000,-1.711268
4811.993000,-1.722792
4814.991000,-1.716194
4817.991000,-1.731155
4820.991000,-1.728174
4823.991000,-1.703446
4826.991000,-1.742224
4829.990000,-1.746687
4832.991000,-1.752800
4835.991000,-1.744733
4838.989000,-1.730870
4841.989000,-1.761424
4844.989000,-1.771884
4847.988000,-1.772510
4850.990000,-1.777112
4853.988000,-1.771599
4856.988000,-1.782528
4859.988000,-1.779560
4862.988000,-1.788776
4865.988000,-1.783724
4868.986000,-1.778703
4871.987000,-1.791717
4874.987000,-1.804301
4877.987000,-1.781229
4880.987000,-1.805576
4883.987000,-1.822104
4886.985000,-1.822509
4889.986000,-1.802952
4892.986000,-1.792974
4895.986000,-1.824300
4898.986000,-1.840594
4901.984000,-1.834332
4904.984000,-1.841107
4907.984000,-1.840308
4910.985000,-1.814643
4913.985000,-1.819942
4916.983000,-1.844976
4919.983000,-1.852812
4922.983000,-1.854369
4925.983000,-1.853407
4928.984000,-1.827108
4931.982000,-1.843178
4934.982000,-1.862612
4937.982000,-1.862915
4940.982000,-1.861242
4943.982000,-1.830110
4946.982000,-1.836991
4949.981000,-1.859277
4952.981000,-1.859570
4955.981000,-1.852332
4958.981000,-1.848760
4961.981000,-1.840754
4964.979000,-1.844898
4967.980000,-1.861997
4970.980000,-1.867429
4973.980000,-1.836634
4976.980000,-1.855110
4979.978000,-1.865872
4982.978000,-1.849586
4985.978000,-1.836283
4988.979000,-1.859022
4991.979000,-1.862928
4994.979000,-1.862741
4997.977000,-1.854732
5000.977000,-1.839751
5003.977000,-1.818616
5006.978000,-1.846234
5009.978000,-1.853141
5012.976000,-1.837086
5015.976000,-1.802928
5018.976000,-1.799916
5021.976000,-1.826517
5024.976000,-1.838633
5027.975000,-1.826207
5030.975000,-1.790707
5033.975000,-1.817709
5036.975000,-1.831585
5039.975000,-1.804148
5042.974000,-1.794093
5045.974000,-1.792237
5048.974000,-1.801249
5051.974000,-1.811940
5054.974000,-1.811304
5057.973000,-1.781855
5060.973000,-1.761230
5063.973000,-1.777310
5066.972000,-1.786002
5069.972000,-1.769508
5072.972000,-1.760394
5075.972000,-1.756022
5078.972000,-1.758392
5081.972000,-1.754210
5084.971000,-1.748615
5087.971000,-1.761196
5090.971000,-1.743216
5093.971000,-1.740973
5096.971000,-1.739990
5099.969000,-1.734374
5102.969000,-1.747486
5105.970000,-1.732845
5108.970000,-1.728643
5111.970000,-1.719767
5114.968000,-1.720433
5117.968000,-1.740708
5120.968000,-1.723387
5123.969000,-1.700876
5126.969000,-1.727365
5129.969000,-1.697885
5132.967000,-1.694023
5135.967000,-1.704663
5138.967000,-1.715059
5141.967000,-1.693826
5144.968000,-1.681237
5147.966000,-1.696114
5150.966000,-1.697171
5153.966000,-1.661487
5156.966000,-1.680700
5159.966000,-1.698279
5162.965000,-1.666576
5165.965000,-1.664135
5168.965000,-1.693985
5171.965000,-1.675564
5174.965000,-1.637714
5177.963000,-1.676516
5180.965000,-1.661640
5183.965000,-1.640294
5186.963000,-1.634067
5189.963000,-1.619717
5192.963000,-1.652893
5195.963000,-1.646944
5198.963000,-1.610954
5201.962000,-1.626010
5204.962000,-1.620625
5207.962000,-1.611294
5210.962000,-1.613925
5213.962000,-1.593457
5216.962000,-1.586100
5219.961000,-1.575242
5222.961000,-1.559608
5225.961000,-1.564568
5228.961000,-1.592399
5231.961000,-1.564038
5234.959000,-1.535237
5237.959000,-1.535071
5240.960000,-1.519573
5243.960000,-1.514341
5246.960000,-1.505009
5249.960000,-1.492846
5252.958000,-1.477827
5255.958000,-1.469135
5258.959000,-1.465450
5261.959000,-1.452311
5264.959000,-1.459980
5267.957000,-1.455058
5270.957000,-1.423256
5273.957000,-1.442106
5276.957000,-1.416402
5279.958000,-1.404219
5282.956000,-1.392865
5285.956000,-1.374028
5288.956000,-1.369014
5291.956000,-1.366468
5294.956000,-1.344599
5297.955000,-1.331698
5300.955000,-1.313610
5303.955000,-1.313633
5306.955000,-1.292356
5309.955000,-1.288528
5312.953000,-1.281893
5315.953000,-1.271687
5318.954000,-1.245678
5321.954000,-1.231084
5324.954000,-1.220590
5327.954000,-1.206030
5330.952000,-1.196719
5333.952000,-1.195947
5336.953000,-1.169173
5339.953000,-1.161919
5342.953000,-1.141332
5345.951000,-1.129879
5348.952000,-1.124338
5351.952000,-1.106392
5354.950000,-1.112912
5357.951000,-1.097397
5360.951000,-1.083643
5363.951000,-1.085995
5366.951000,-1.061509
5369.949000,-1.046436
5372.949000,-1.044824
5375.950000,-1.020953
5378.950000,-1.027725
5381.950000,-0.999625
5384.950000,-1.008657
5387.948000,-0.989794
5390.948000,-0.993560
5393.948000,-0.973157
5396.949000,-0.951343
5399.949000,-0.942939
5402.947000,-0.950901
5405.947000,-0.934423
5408.947000,-0.927924
5411.947000,-0.912694
5414.948000,-0.923491
5417.946000,-0.903063
5420.946000,-0.885621
5423.946000,-0.885332
5426.946000,-0.876048
5429.946000,-0.874719
5432.944000,-0.882786
5435.945000,-0.855372
5438.945000,-0.844834
5441.945000,-0.839245
5444.945000,-0.832933
5447.945000,-0.841350
5450.943000,-0.819002
5453.944000,-0.823965
5456.944000,-0.836808
5459.944000,-0.818060
5462.944000,-0.804431
5465.942000,-0.805444
5468.942000,-0.802273
5471.942000,-0.804061
5474.943000,-0.799234
5477.943000,-0.800740
5480.941000,-0.796521
5483.941000,-0.794808
5486.941000,-0.792489
5489.941000,-0.794328
5492.942000,-0.801827
5495.942000,-0.806498
5498.940000,-0.821612
5501.940000,-0.815514
5504.940000,-0.813086
5507.940000,-0.828571
5510.940000,-0.834214
5513.939000,-0.845480
5516.939000,-0.847819
5519.939000,-0.859098
5522.939000,-0.852360
5525.939000,-0.841802
5528.937000,-0.873451
5531.938000,-0.884618
5534.938000,-0.888677
5537.938000,-0.904702
5540.938000,-0.919020
5543.936000,-0.924123
5546.936000,-0.936545
5549.937000,-0.951251
5552.937000,-0.959270
5555.937000,-0.967276
5558.937000,-0.985327
5561.935000,-1.000502
5564.935000,-1.008858
5567.935000,-1.024693
5570.936000,-1.042050
5573.936000,-1.053320
5576.934000,-1.072081
5579.934000,-1.090853
5582.934000,-1.100966
5585.934000,-1.120034
5588.935000,-1.135056
5591.933000,-1.157058
5594.933000,-1.175938
5597.933000,-1.194506
5600.933000,-1.218142
5603.932000,-1.236839
5606.932000,-1.254068
5609.933000,-1.282440
5612.933000,-1.303989
5615.931000,-1.326293
5618.931000,-1.351398
5621.931000,-1.375670
5624.931000,-1.399599
5627.932000,-1.419741
5630.932000,-1.444978
5633.930000,-1.467330
5636.930000,-1.493829
5639.930000,-1.519749
5642.930000,-1.543039
5645.930000,-1.569643
5648.929000,-1.588765
5651.929000,-1.618201
5654.929000,-1.637663
5657.929000,-1.667626
5660.929000,-1.692738
5663.927000,-1.717782
5666.928000,-1.746949
5669.928000,-1.769097
5672.928000,-1.787430
5675.928000,-1.810475
5678.926000,-1.835879
5681.926000,-1.859427
5684.926000,-1.884648
5687.927000,-1.906227
5690.927000,-1.931683
5693.927000,-1.953477
5696.925000,-1.979299
5699.925000,-2.003554
5702.925000,-2.023764
5705.926000,-2.053081
5708.926000,-2.083703
5711.924000,-2.108988
5714.924000,-2.131472
5717.924000,-2.157733
5720.924000,-2.183328
5723.924000,-2.208987
5726.923000,-2.234558
5729.923000,-2.257572
5732.923000,-2.278601
5735.923000,-2.300154
5738.923000,-2.321907
5741.923000,-2.343293
5744.922000,-2.358492
5747.922000,-2.382322
5750.922000,-2.397371
5753.922000,-2.413090
5756.922000,-2.430791
5759.920000,-2.440541
5762.920000,-2.460207
5765.921000,-2.476399
5768.921000,-2.482902
5771.921000,-2.499223
5774.919000,-2.507759
5777.919000,-2.531259
5780.919000,-2.543470
5783.920000,-2.557914
5786.920000,-2.572933
5789.918000,-2.582863
5792.918000,-2.596209
5795.918000,-2.608121
5798.917000,-2.621532
5801.917000,-2.630874
5804.919000,-2.645801
5807.917000,-2.658079
5810.917000,-2.664525
5813.917000,-2.678374
5816.917000,-2.680047
5819.917000,-2.691860
5822.916000,-2.703860
5825.916000,-2.709823
5828.917000,-2.714623
5831.915000,-2.718818
5834.915000,-2.705852
5837.915000,-2.710598
5840.915000,-2.726942
5843.916000,-2.709955
5846.914000,-2.694800
5849.914000,-2.717091
5852.914000,-2.734493
5855.914000,-2.703748
5858.914000,-2.703163
5861.914000,-2.710652
5864.914000,-2.696609
5867.914000,-2.685935
5870.912000,-2.686057
5873.912000,-2.677106
5876.912000,-2.668886
5879.912000,-2.660898
5882.913000,-2.655809
5885.913000,-2.642099
5888.911000,-2.633882
5891.911000,-2.625842
5894.911000,-2.615127
5897.911000,-2.605089
5900.910000,-2.596406
5903.910000,-2.577879
5906.910000,-2.572430
5909.910000,-2.557309
5912.910000,-2.542834
5915.910000,-2.529369
5918.909000,-2.515227
5921.909000,-2.498818
5924.909000,-2.489228
5927.909000,-2.474254
5930.909000,-2.458048
5933.907000,-2.447204
5936.907000,-2.437458
5939.908000,-2.422551
5942.908000,-2.404830
5945.908000,-2.391796
5948.906000,-2.372052
5951.906000,-2.350646
5954.906000,-2.343728
5957.907000,-2.320037
5960.907000,-2.301554
5963.907000,-2.278955
5966.905000,-2.263365
5969.905000,-2.236992
5972.905000,-2.215357
5975.905000,-2.185452
5978.906000,-2.171385
5981.904000,-2.139036
5984.904000,-2.109791
5987.904000,-2.092735
5990.904000,-2.065305
5993.904000,-2.041257
5996.903000,-2.018909
5999.903000,-1.985561
6002.903000,-1.975138
6005.903000,-1.935592
6008.903000,-1.919016
6011.901000,-1.890906
6014.901000,-1.862932
6017.902000,-1.852173
6020.902000,-1.825827
6023.902000,-1.804339
6026.902000,-1.776511
6029.900000,-1.751766
6032.900000,-1.739824
6035.901000,-1.718057
6038.901000,-1.685813
6041.901000,-1.680728
6044.899000,-1.658074
6047.899000,-1.630687
6050.899000,-1.611290
6053.899000,-1.591842
6056.900000,-1.566880
6059.898000,-1.546813
6062.898000,-1.514824
6065.898000,-1.502936
6068.898000,-1.474815
6071.898000,-1.455003
6074.899000,-1.437754
6077.897000,-1.416124
6080.897000,-1.394442
6083.897000,-1.374633
6086.897000,-1.347947
6089.897000,-1.337946
6092.895000,-1.310295
6095.896000,-1.294681
6098.896000,-1.277157
6101.896000,-1.264375
6104.896000,-1.252746
6107.894000,-1.228609
6110.894000,-1.224846
6113.895000,-1.201179
6116.895000,-1.189012
6119.895000,-1.178600
6122.895000,-1.162969
6125.893000,-1.156143
6128.893000,-1.145476
6131.893000,-1.147587
6134.894000,-1.128706
6137.894000,-1.120173
6140.892000,-1.113405
6143.892000,-1.110533
6146.892000,-1.093328
6149.892000,-1.087620
6152.893000,-1.099420
6155.891000,-1.118042
6158.891000,-1.100263
6161.891000,-1.061563
6164.891000,-1.089996
6167.891000,-1.078846
6170.889000,-1.065405
6173.890000,-1.078309
6176.890000,-1.086107
6179.890000,-1.103288
6182.890000,-1.104396
6185.890000,-1.107459
6188.888000,-1.086546
6191.889000,-1.071768
6194.889000,-1.094657
6197.889000,-1.119191
6200.889000,-1.126663
6203.887000,-1.128927
6206.887000,-1.131198
6209.887000,-1.143664
6212.888000,-1.139632
6215.888000,-1.158003
6218.888000,-1.167164
6221.886000,-1.178964
6224.886000,-1.188016
6227.886000,-1.200261
6230.887000,-1.211796
6233.887000,-1.224210
6236.885000,-1.232046
6239.885000,-1.248826
6242.885000,-1.250740
6245.885000,-1.281760
6248.886000,-1.294613
6251.884000,-1.311376
6254.885000,-1.331127
6257.885000,-1.347635
6260.883000,-1.364700
6263.883000,-1.381201
6266.883000,-1.398453
6269.884000,-1.417045
6272.884000,-1.438642
6275.882000,-1.456282
6278.882000,-1.481519
6281.882000,-1.500563
6284.882000,-1.527572
6287.883000,-1.541217
6290.881000,-1.569120
6293.881000,-1.586189
6296.881000,-1.612375
6299.881000,-1.632350
6302.881000,-1.650285
6305.881000,-1.678987
6308.880000,-1.698599
6311.880000,-1.721943
6314.880000,-1.744641
6317.880000,-1.767961
6320.880000,-1.785672
6323.878000,-1.805889
6326.879000,-1.828043
6329.879000,-1.852924
6332.879000,-1.871842
6335.879000,-1.896661
6338.877000,-1.915270
6341.877000,-1.940844
6344.877000,-1.961020
6347.878000,-1.985710
6350.878000,-2.007824
6353.878000,-2.029118
6356.876000,-2.057439
6359.876000,-2.084587
6362.876000,-2.109491
6365.877000,-2.131547
6368.877000,-2.157210
6371.875000,-2.184388
6374.875000,-2.203803
6377.875000,-2.232396
6380.875000,-2.254941
6383.875000,-2.276860
6386.874000,-2.300235
6389.874000,-2.321115
6392.874000,-2.340223
6395.874000,-2.357003
6398.874000,-2.377094
6401.872000,-2.393649
6404.873000,-2.414117
6407.873000,-2.428585
6410.873000,-2.443815
6413.873000,-2.459153
6416.873000,-2.475753
6419.871000,-2.491417
6422.871000,-2.501589
6425.872000,-2.518314
6428.872000,-2.534404
6431.872000,-2.547753
6434.870000,-2.561256
6437.870000,-2.577159
6440.870000,-2.590723
6443.871000,-2.601431
6446.871000,-2.615379
6449.869000,-2.633206
6452.869000,-2.640474
6455.869000,-2.655003
6458.869000,-2.668567
6461.869000,-2.678823
6464.870000,-2.690901
6467.868000,-2.700178
6470.868000,-2.715428
6473.868000,-2.723621
6476.868000,-2.730604
6479.868000,-2.737375
6482.867000,-2.748373
6485.867000,-2.750341
6488.867000,-2.754498
6491.867000,-2.753448
6494.867000,-2.765740
6497.865000,-2.771336
6500.865000,-2.757160
6503.866000,-2.754356
6506.866000,-2.764384
6509.866000,-2.777135
6512.864000,-2.760781
6515.864000,-2.745262
6518.864000,-2.748746
6521.865000,-2.746727
6524.865000,-2.744490
6527.865000,-2.744062
6530.863000,-2.731855
6533.863000,-2.749872
6536.863000,-2.758986
6539.863000,-2.759074
6542.864000,-2.740788
6545.862000,-2.709241
6548.862000,-2.726456
6551.862000,-2.713780
6554.862000,-2.689460
6557.862000,-2.686319
6560.861000,-2.677732
6563.861000,-2.682471
6566.861000,-2.658406
6569.861000,-2.643934
6572.861000,-2.633107
6575.861000,-2.625734
6578.859000,-2.611877
6581.860000,-2.600744
6584.860000,-2.585311
6587.859000,-2.571560
6590.859000,-2.564261
6593.859000,-2.553036
6596.859000,-2.540383
6599.860000,-2.527091
6602.858000,-2.503703
6605.858000,-2.504675
6608.858000,-2.490370
6611.858000,-2.471935
6614.858000,-2.461019
6617.856000,-2.450505
6620.857000,-2.435758
6623.857000,-2.441979
6626.857000,-2.415004
6629.857000,-2.397351
6632.855000,-2.385643
6635.855000,-2.355463
6638.856000,-2.357040
6641.856000,-2.345462
6644.856000,-2.331262
6647.854000,-2.313004
6650.854000,-2.305382
6653.854000,-2.301816
6656.855000,-2.256719
6659.855000,-2.258592
6662.855000,-2.226314
6665.853000,-2.219818
6668.853000,-2.194033
6671.853000,-2.177855
6674.853000,-2.158410
6677.854000,-2.140542
6680.852000,-2.114910
6683.852000,-2.103022
6686.852000,-2.068966
6689.852000,-2.064306
6692.852000,-2.041812
6695.851000,-2.022982
6698.851000,-2.012328
6701.851000,-1.990935
6704.851000,-1.973292
6707.851000,-1.954775
6710.851000,-1.942744
6713.849000,-1.916422
6716.850000,-1.909392
6719.850000,-1.891086
6722.850000,-1.876445
6725.850000,-1.862894
6728.848000,-1.846754
6731.848000,-1.851234
6734.849000,-1.815571
6737.849000,-1.802112
6740.849000,-1.789034
6743.847000,-1.773696
6746.847000,-1.775369
6749.847000,-1.748941
6752.847000,-1.741483
6755.848000,-1.731053
6758.846000,-1.717904
6761.846000,-1.713954
6764.846000,-1.698595
6767.846000,-1.689692
6770.846000,-1.679939
6773.847000,-1.669944
6776.845000,-1.655962
6779.845000,-1.645628
6782.845000,-1.633951
6785.845000,-1.623304
6788.845000,-1.621842
6791.843000,-1.616410
6794.844000,-1.608309
6797.844000,-1.608928
6800.844000,-1.589357
6803.844000,-1.588901
6806.842000,-1.577533
6809.842000,-1.575977
6812.843000,-1.565516
6815.843000,-1.559663
6818.843000,-1.564782
6821.843000,-1.551579
6824.841000,-1.547693
6827.841000,-1.547180
6830.841000,-1.532610
6833.842000,-1.549325
6836.842000,-1.565006
6839.840000,-1.567022
6842.840000,-1.556756
6845.840000,-1.537614
6848.840000,-1.529407
6851.841000,-1.545820
6854.839000,-1.566346
6857.839000,-1.569732
6860.839000,-1.566543
6863.839000,-1.565163
6866.839000,-1.572591
6869.837000,-1.577374
6872.838000,-1.579767
6875.838000,-1.569133
6878.837000,-1.573410
6881.837000,-1.593882
6884.837000,-1.598226
6887.837000,-1.605212
6890.838000,-1.607510
6893.836000,-1.611494
6896.836000,-1.598352
6899.836000,-1.620452
6902.836000,-1.633822
6905.836000,-1.638758
6908.836000,-1.649402
6911.835000,-1.654521
6914.835000,-1.665563
6917.834000,-1.675356
6920.834000,-1.682811
6923.834000,-1.695257
6926.834000,-1.698908
6929.835000,-1.703082
6932.835000,-1.717635
6935.833000,-1.727504
6938.833000,-1.736142
6941.833000,-1.747248
6944.833000,-1.762189
6947.833000,-1.769671
6950.832000,-1.770861
6953.832000,-1.788025
6956.832000,-1.801221
6959.832000,-1.805692
6962.832000,-1.812909
6965.830000,-1.830457
6968.831000,-1.846353
6971.831000,-1.855412
6974.831000,-1.864978
6977.831000,-1.879436
6980.831000,-1.894319
6983.829000,-1.895261
6986.829000,-1.912139
6989.830000,-1.929011
6992.830000,-1.940338
6995.830000,-1.947340
6998.828000,-1.960051
7001.828000,-1.977361
7004.828000,-1.985894
7007.829000,-1.996279
7010.829000,-2.012797
7013.827000,-2.023063
7016.827000,-2.041410
7019.827000,-2.056297
7022.827000,-2.069650
7025.828000,-2.083210
7028.827000,-2.096658
7031.827000,-2.110426
7034.827000,-2.123344
7037.825000,-2.131221
7040.825000,-2.139216
7043.825000,-2.160426
7046.826000,-2.175689
7049.826000,-2.187016
7052.826000,-2.199339
7055.824000,-2.213491
7058.824000,-2.218648
7061.824000,-2.233164
7064.825000,-2.243797
7067.825000,-2.257235
7070.823000,-2.253788
7073.823000,-2.275983
7076.823000,-2.283673
7079.822000,-2.296866
7082.822000,-2.305786
7085.823000,-2.315057
7088.823000,-2.313775
7091.823000,-2.332217
7094.821000,-2.338115
7097.821000,-2.346662
7100.821000,-2.352430
7103.822000,-2.353838
7106.822000,-2.361548
7109.820000,-2.363540
7112.820000,-2.374575
7115.820000,-2.379698
7118.820000,-2.389757
7121.820000,-2.383015
7124.819000,-2.391388
7127.819000,-2.399921
7130.819000,-2.403266
7133.819000,-2.408301
7136.819000,-2.405615
7139.818000,-2.414036
7142.819000,-2.399646
7145.819000,-2.392687
7148.818000,-2.389791
7151.818000,-2.403361
7154.818000,-2.424509
7157.816000,-2.420308
7160.816000,-2.424091
7163.817000,-2.427378
7166.817000,-2.399938
7169.817000,-2.411612
7172.815000,-2.426726
7175.815000,-2.417826
7178.815000,-2.400176
7181.816000,-2.397412
7184.816000,-2.410840
7187.816000,-2.413509
7190.814000,-2.405054
7193.814000,-2.385402
7196.814000,-2.383274
7199.814000,-2.386089
7202.814000,-2.381832
7205.814000,-2.374694
